"Time (s)","Gyroscope x (rad/s)","Gyroscope y (rad/s)","Gyroscope z (rad/s)"
7.907637000E-2,-4.372889996E-1,-1.709990576E-2,-4.854868948E-1
8.411767200E-2,-4.511339962E-1,-2.135990560E-2,-4.982669055E-1
8.918079700E-2,-4.617840052E-1,-7.514906116E-3,-4.865519106E-1
9.422574500E-2,-4.607190192E-1,1.804509386E-2,-4.790969193E-1
9.928933800E-2,-4.351589978E-1,5.638509616E-2,-4.812269211E-1
1.043285570E-1,-3.744540215E-1,1.043100879E-1,-4.801619053E-1
1.093783490E-1,-2.967090011E-1,1.458451003E-1,-4.759019017E-1
1.144486610E-1,-2.157689929E-1,1.777950972E-1,-4.641869068E-1
1.194973070E-1,-1.305689961E-1,2.012251019E-1,-4.492768943E-1
1.245416300E-1,-4.323900118E-2,2.161350995E-1,-4.301069081E-1
1.295849630E-1,3.770099953E-2,2.214601040E-1,-4.130668938E-1
1.346451200E-1,1.101209968E-1,2.118750960E-1,-3.949618936E-1
1.396856400E-1,1.761510074E-1,1.863151044E-1,-3.779219091E-1
1.447382970E-1,2.379209995E-1,1.458451003E-1,-3.651418984E-1
1.497970990E-1,2.869109809E-1,1.011150926E-1,-3.523619175E-1
1.548483490E-1,3.359009922E-1,5.958009511E-2,-3.438419104E-1
1.599035050E-1,3.753059804E-1,2.230509371E-2,-3.374519050E-1
1.649441300E-1,4.051260054E-1,-1.709990576E-2,-3.385169208E-1
1.700008490E-1,4.242959917E-1,-5.437490717E-2,-3.438419104E-1
1.750534010E-1,4.306859970E-1,-9.164991230E-2,-3.608818948E-1
1.800961090E-1,4.211010039E-1,-1.235999092E-1,-3.875069022E-1
1.851489740E-1,4.029960036E-1,-1.480949074E-1,-4.162619114E-1
1.902089740E-1,3.689160049E-1,-1.619399041E-1,-4.471469223E-1
1.952567860E-1,3.263159990E-1,-1.672649086E-1,-4.833569229E-1
2.003124110E-1,2.826509774E-1,-1.672649086E-1,-5.163719058E-1
2.053589740E-1,2.315310091E-1,-1.693948954E-1,-5.504518747E-1
2.104088700E-1,1.825410128E-1,-1.747198999E-1,-5.824018717E-1
2.154620990E-1,1.346160024E-1,-1.811099052E-1,-6.090268493E-1
2.205123590E-1,8.988600224E-2,-1.864348948E-1,-6.281968951E-1
2.255663700E-1,5.687100068E-2,-1.928249002E-1,-6.441718936E-1
2.306200150E-1,2.598599903E-2,-1.960199028E-1,-6.633418798E-1
2.356701720E-1,5.750999786E-3,-1.970849037E-1,-6.771869063E-1
2.407153280E-1,-8.093999699E-3,-1.917598993E-1,-6.899668574E-1
2.457422550E-1,-2.087400109E-2,-1.949549019E-1,-6.995518804E-1
2.508373070E-1,-3.365400061E-2,-2.045398951E-1,-7.048768997E-1
2.558445990E-1,-4.323900118E-2,-2.173199058E-1,-7.070068717E-1
2.609160050E-1,-5.601900071E-2,-2.386199087E-1,-7.070068717E-1
2.659515260E-1,-6.666900218E-2,-2.556599081E-1,-7.027468681E-1
2.710242860E-1,-7.199399918E-2,-2.748299241E-1,-6.920968890E-1
2.760778800E-1,-7.305900007E-2,-2.971949279E-1,-6.793168783E-1
2.811237650E-1,-6.879900396E-2,-3.195599020E-1,-6.676018834E-1
2.861682450E-1,-6.027900055E-2,-3.376649022E-1,-6.548218727E-1
2.912181400E-1,-4.749900103E-2,-3.504449129E-1,-6.452368498E-1
2.962872550E-1,-3.258899972E-2,-3.578999043E-1,-6.356518865E-1
3.013351720E-1,-1.767900027E-2,-3.589649200E-1,-6.303268671E-1
3.063742340E-1,-4.898999818E-3,-3.536399305E-1,-6.271318793E-1
3.114234010E-1,1.107600052E-2,-3.429899216E-1,-6.207419038E-1
3.164947550E-1,3.024599887E-2,-3.248849213E-1,-6.154168844E-1
3.215446510E-1,4.941599816E-2,-3.014549315E-1,-6.079618931E-1
3.265710570E-1,7.284600288E-2,-2.663099170E-1,-6.026368737E-1
3.316344420E-1,1.026659980E-1,-2.300999016E-1,-5.919868946E-1
3.366895990E-1,1.303560138E-1,-1.906948984E-1,-5.802718997E-1
3.417504840E-1,1.655010134E-1,-1.480949074E-1,-5.621668696E-1
3.467990780E-1,1.974510103E-1,-1.108199060E-1,-5.429968834E-1
3.518528800E-1,2.272710055E-1,-8.312991261E-2,-5.248918533E-1
3.568695470E-1,2.581560016E-1,-6.502491236E-2,-5.046568513E-1
3.619525150E-1,2.847809792E-1,-4.691990465E-2,-4.854868948E-1
3.669666300E-1,3.082109988E-1,-3.946490586E-2,-4.695118964E-1
3.720426200E-1,3.252509832E-1,-4.052990675E-2,-4.514068961E-1
3.770963700E-1,3.412259817E-1,-4.052990675E-2,-4.279769063E-1
3.821547030E-1,3.497459888E-1,-4.372490570E-2,-4.066769183E-1
3.872051720E-1,3.518759906E-1,-5.117990449E-2,-3.875069022E-1
3.922684530E-1,3.476159871E-1,-6.076490507E-2,-3.736619055E-1
3.973030880E-1,3.390959799E-1,-7.354491204E-2,-3.662069142E-1
4.023495990E-1,3.220559955E-1,-8.525990695E-2,-3.566219211E-1
4.074018380E-1,2.975609899E-1,-9.590990841E-2,-3.491668999E-1
4.124626720E-1,2.720009983E-1,-1.022999063E-1,-3.438419104E-1
4.175231920E-1,2.443110049E-1,-1.044299081E-1,-3.385169208E-1
4.225731920E-1,2.144910097E-1,-1.022999063E-1,-3.321269155E-1
4.276220990E-1,1.868010014E-1,-1.001699120E-1,-3.214769065E-1
4.326739740E-1,1.601760089E-1,-1.012349129E-1,-3.140219152E-1
4.377270990E-1,1.335510015E-1,-1.001699120E-1,-3.065668941E-1
4.427765260E-1,1.122509986E-1,-9.697490931E-2,-2.969819009E-1
4.478241300E-1,9.308099747E-2,-9.377990663E-2,-2.959169149E-1
4.528435570E-1,7.497599721E-2,-8.419490606E-2,-2.948518991E-1
4.578915260E-1,5.474099889E-2,-7.567490637E-2,-2.927218974E-1
4.629722030E-1,3.770099953E-2,-6.395991147E-2,-2.852669060E-1
4.680301200E-1,2.066100016E-2,-5.330990627E-2,-2.735519111E-1
4.730824110E-1,-6.390000344E-4,-4.265990481E-2,-2.543818951E-1
4.781309530E-1,-1.767900027E-2,-3.626990691E-2,-2.320169061E-1
4.831565780E-1,-3.471900150E-2,-3.200990707E-2,-2.021969110E-1
4.882068380E-1,-4.962899908E-2,-3.200990707E-2,-1.734419018E-1
4.932802240E-1,-6.453900039E-2,-3.626990691E-2,-1.436219066E-1
4.983092340E-1,-7.412400097E-2,-4.585490376E-2,-1.148669049E-1
5.033657970E-1,-7.838399708E-2,-5.224490538E-2,-8.930690587E-2
5.084395470E-1,-8.264400065E-2,-5.650490522E-2,-6.800691038E-2
5.134818900E-1,-8.583900332E-2,-5.863490701E-2,-5.203190446E-2
5.185269420E-1,-8.796899766E-2,-5.011490732E-2,-4.670690745E-2
5.235813170E-1,-8.690399677E-2,-3.733490407E-2,-4.883690923E-2
5.286299110E-1,-8.477400243E-2,-2.774990536E-2,-6.055190414E-2
5.336919420E-1,-7.944899797E-2,-1.603490487E-2,-7.759191096E-2
5.387389220E-1,-7.838399708E-2,-7.514906116E-3,-9.676190466E-2
5.437949110E-1,-7.731900364E-2,2.070093527E-3,-1.159319058E-1
5.488489740E-1,-7.731900364E-2,9.525093250E-3,-1.329719126E-1
5.538915780E-1,-7.731900364E-2,1.485009398E-2,-1.468169093E-1
5.589514220E-1,-7.944899797E-2,2.124009468E-2,-1.532069147E-1
5.639943900E-1,-8.796899766E-2,2.337009460E-2,-1.585319042E-1
5.690566300E-1,-9.648899734E-2,2.443509363E-2,-1.585319042E-1
5.741089740E-1,-1.060739979E-1,2.443509363E-2,-1.595969051E-1
5.791531920E-1,-1.220490038E-1,2.443509363E-2,-1.595969051E-1
5.842065780E-1,-1.412189901E-1,2.124009468E-2,-1.574669033E-1
5.892555880E-1,-1.603889912E-1,1.911009476E-2,-1.532069147E-1
5.943060050E-1,-1.742339879E-1,1.911009476E-2,-1.425569057E-1
5.993524110E-1,-1.912739873E-1,1.698009484E-2,-1.276469082E-1
6.043765780E-1,-2.029889971E-1,6.330093369E-3,-1.095419079E-1
6.094471510E-1,-2.093789876E-1,-1.070990600E-2,-8.291690797E-2
6.145045470E-1,-2.157689929E-1,-3.094490618E-2,-5.629190803E-2
6.195612650E-1,-2.200289965E-1,-4.798490554E-2,-2.647190541E-2
6.246046510E-1,-2.189639956E-1,-6.182990596E-2,3.348093713E-3
6.296485570E-1,-2.157689929E-1,-6.928490847E-2,3.423309326E-2
6.347057970E-1,-2.104439884E-1,-7.460991293E-2,6.298809499E-2
6.397689220E-1,-1.997939944E-1,-7.247991115E-2,8.641809225E-2
6.448043900E-1,-1.902089864E-1,-7.354491204E-2,1.087830886E-1
6.498625670E-1,-1.838189960E-1,-6.928490847E-2,1.247580945E-1
6.548925670E-1,-1.752989888E-1,-6.715490669E-2,1.428630948E-1
6.600080880E-1,-1.689089984E-1,-6.289491057E-2,1.609680951E-1
6.650359530E-1,-1.614539921E-1,-6.715490669E-2,1.780080944E-1
6.700712650E-1,-1.571939886E-1,-7.141491026E-2,1.886580884E-1
6.751192860E-1,-1.529339999E-1,-7.460991293E-2,1.939830929E-1
6.801743900E-1,-1.497389972E-1,-7.780490816E-2,1.939830929E-1
6.852171510E-1,-1.486739963E-1,-8.419490606E-2,1.865280867E-1
6.902782450E-1,-1.497389972E-1,-8.632490784E-2,1.737480909E-1
6.953227760E-1,-1.518689990E-1,-8.951991051E-2,1.620330960E-1
7.003805880E-1,-1.539989859E-1,-1.044299081E-1,1.545780897E-1
7.054284530E-1,-1.561289877E-1,-1.246649101E-1,1.535130888E-1
7.104815260E-1,-1.518689990E-1,-1.459649056E-1,1.641630977E-1
7.155253280E-1,-1.444139928E-1,-1.672649086E-1,1.780080944E-1
7.205767340E-1,-1.295039952E-1,-1.843049079E-1,1.961130947E-1
7.256042860E-1,-1.124640033E-1,-1.938899010E-1,2.152830958E-1
7.306895990E-1,-9.009899944E-2,-1.938899010E-1,2.323230952E-1
7.357375670E-1,-6.879900396E-2,-1.896298975E-1,2.440380901E-1
7.408035570E-1,-4.856400192E-2,-1.800449044E-1,2.546880841E-1
7.458454840E-1,-3.045899980E-2,-1.683298945E-1,2.568180859E-1
7.508964220E-1,-1.022399962E-2,-1.576799005E-1,2.578831017E-1
7.559477240E-1,8.946000598E-3,-1.374448985E-1,2.557530999E-1
7.609924110E-1,2.385599911E-2,-1.182749122E-1,2.546880841E-1
7.660396510E-1,4.089599848E-2,-1.022999063E-1,2.557530999E-1
7.710914740E-1,6.006599963E-2,-8.951991051E-2,2.578831017E-1
7.761405880E-1,7.923600078E-2,-8.951991051E-2,2.642730772E-1
7.812001720E-1,9.734100103E-2,-9.058491141E-2,2.749230862E-1
7.862478280E-1,1.122509986E-1,-8.951991051E-2,2.845080793E-1
7.913312130E-1,1.260960102E-1,-8.525990695E-2,2.887680829E-1
7.963656400E-1,1.378110051E-1,-7.780490816E-2,2.887680829E-1
8.014014220E-1,1.473960131E-1,-6.395991147E-2,2.866380811E-1
8.064392340E-1,1.527210027E-1,-4.265990481E-2,2.845080793E-1
8.114911090E-1,1.559160054E-1,-2.242490463E-2,2.855730951E-1
8.165387130E-1,1.623060107E-1,-4.319906235E-3,2.877030969E-1
8.215893900E-1,1.676310003E-1,1.485009398E-2,2.877030969E-1
8.266405360E-1,1.708260030E-1,3.295509517E-2,2.919631004E-1
8.317041820E-1,1.697610021E-1,4.254009575E-2,2.940931022E-1
8.367415780E-1,1.686960012E-1,5.319009349E-2,2.930280864E-1
8.418154840E-1,1.676310003E-1,6.384009123E-2,2.898330986E-1
8.468550670E-1,1.633710116E-1,7.129509002E-2,2.845080793E-1
8.519037130E-1,1.591110080E-1,8.620508760E-2,2.706630826E-1
8.569555880E-1,1.505910009E-1,1.085700914E-1,2.536230981E-1
8.620147550E-1,1.431360096E-1,1.298701018E-1,2.333880961E-1
8.671090780E-1,1.303560138E-1,1.469101012E-1,2.099580914E-1
8.721242340E-1,1.133159995E-1,1.575600952E-1,1.843980849E-1
8.771720990E-1,9.521099925E-2,1.575600952E-1,1.577730924E-1
8.822192340E-1,7.071600109E-2,1.586250961E-1,1.364730895E-1
8.872725670E-1,4.941599816E-2,1.575600952E-1,1.194330901E-1
8.923287650E-1,3.131099790E-2,1.490401030E-1,1.055880934E-1
8.973789220E-1,1.533600036E-2,1.383900940E-1,9.600309283E-2
9.024254320E-1,3.621000098E-3,1.181550920E-1,9.174308926E-2
9.074806400E-1,-6.390000344E-4,9.046509117E-2,8.641809225E-2
9.125351200E-1,3.621000098E-3,5.958009511E-2,7.576809078E-2
9.175674110E-1,1.214100048E-2,3.082509525E-2,6.405308843E-2
9.226338170E-1,2.705099992E-2,4.200093914E-3,5.127309263E-2
9.276777760E-1,3.557099774E-2,-2.348990552E-2,3.423309326E-2
9.327416820E-1,4.941599816E-2,-4.372490570E-2,1.825809292E-2
9.377876200E-1,6.432600319E-2,-6.076490507E-2,3.348093713E-3
9.428382450E-1,7.391099632E-2,-7.141491026E-2,-7.301906124E-3
9.478940780E-1,8.456099778E-2,-8.099991083E-2,-1.156190597E-2
9.529418380E-1,9.095100313E-2,-8.738990873E-2,-9.431906044E-3
9.579993380E-1,9.627600014E-2,-8.845490962E-2,-5.171906203E-3
9.630236090E-1,1.016009971E-1,-8.419490606E-2,2.283093752E-3
9.680951720E-1,1.026659980E-1,-7.567490637E-2,9.738094173E-3
9.731155880E-1,1.047959998E-1,-5.969990417E-2,1.932309382E-2
9.781854840E-1,1.037309989E-1,-3.839990497E-2,2.145309374E-2
9.832353800E-1,9.840600193E-2,-7.514906116E-3,1.932309382E-2
9.882787650E-1,9.414599836E-2,2.124009468E-2,2.145309374E-2
9.934031920E-1,8.669099957E-2,4.360509291E-2,2.571309358E-2
9.983977760E-1,8.349599689E-2,6.277509034E-2,3.103809431E-2
1.003448349E0,8.243099600E-2,7.768508792E-2,3.955809027E-2
1.008494703E0,8.136600256E-2,9.472508729E-2,4.701309651E-2
1.013545276E0,7.923600078E-2,1.075050905E-1,5.340309441E-2
1.018594911E0,7.710599899E-2,1.192200929E-1,5.979309231E-2
1.023645067E0,7.178100199E-2,1.192200929E-1,6.085809320E-2
1.028697932E0,6.113100052E-2,1.181550920E-1,5.979309231E-2
1.033755901E0,5.048099905E-2,1.117650941E-1,4.807809740E-2
1.038813401E0,3.663599864E-2,1.032450944E-1,3.529809415E-2
1.043848297E0,2.066100016E-2,9.685508907E-2,1.719309390E-2
1.048914338E0,3.621000098E-3,9.153009206E-2,-3.041906282E-3
1.053965849E0,-1.235399954E-2,7.875008881E-2,-1.688690670E-2
1.059004026E0,-2.513400093E-2,6.490509212E-2,-2.966690622E-2
1.064061161E0,-3.578399867E-2,4.893009365E-2,-3.925190866E-2
1.069112307E0,-4.643400013E-2,2.763009444E-2,-4.990190268E-2
1.074164442E0,-5.388899893E-2,5.265093409E-3,-6.055190414E-2
1.079216630E0,-5.814899877E-2,-1.496990677E-2,-6.800691038E-2
1.084269182E0,-5.814899877E-2,-2.774990536E-2,-7.439690828E-2
1.089321734E0,-5.069399998E-2,-2.455490641E-2,-7.759191096E-2
1.094374234E0,-4.110899940E-2,-1.070990600E-2,-7.865690440E-2
1.099426786E0,-2.832899988E-2,1.059009321E-2,-7.865690440E-2
1.104479338E0,-1.874400117E-2,3.189009428E-2,-7.652691007E-2
1.109527203E0,-1.341899950E-2,5.425509438E-2,-7.546190917E-2
1.114579755E0,-9.158999659E-3,7.555509359E-2,-6.694190949E-2
1.119632307E0,-5.963999778E-3,9.366009384E-2,-5.629190803E-2
1.124684807E0,-7.029000204E-3,1.138950884E-1,-4.138190299E-2
1.129737359E0,-1.022399962E-2,1.298701018E-1,-2.647190541E-2
1.134789911E0,-1.661400124E-2,1.405200958E-1,-9.431906044E-3
1.139835745E0,-2.300400101E-2,1.426500976E-1,2.283093752E-3
1.144888297E0,-3.791400045E-2,1.394550949E-1,5.478093866E-3
1.149940797E0,-5.708400160E-2,1.362600923E-1,1.530938316E-4
1.154993349E0,-8.477400243E-2,1.266750991E-1,-1.369190589E-2
1.160045901E0,-1.209840029E-1,1.128300875E-1,-2.966690622E-2
1.165098453E0,-1.625189930E-1,9.153009206E-2,-4.457690567E-2
1.170134859E0,-2.061839998E-1,7.129509002E-2,-6.055190414E-2
1.175187411E0,-2.530440092E-1,4.893009365E-2,-6.907191128E-2
1.180239963E0,-2.967090011E-1,2.337009460E-2,-7.333190739E-2
1.185292515E0,-3.382440209E-1,-2.189906314E-3,-7.759191096E-2
1.190345015E0,-3.723240197E-1,-3.094490618E-2,-7.972190529E-2
1.195397567E0,-4.010789990E-1,-6.395991147E-2,-7.652691007E-2
1.200447411E0,-4.181190133E-1,-9.803991020E-2,-6.800691038E-2
1.205499963E0,-4.245090187E-1,-1.214699075E-1,-6.374690682E-2
1.210552515E0,-4.255740047E-1,-1.417049021E-1,-5.309690535E-2
1.215605067E0,-4.117290080E-1,-1.587449014E-1,-4.244690388E-2
1.220657567E0,-3.914940059E-1,-1.619399041E-1,-3.073190711E-2
1.225710172E0,-3.606089950E-1,-1.693948954E-1,-1.901690662E-2
1.230762151E0,-3.233340085E-1,-1.725898981E-1,-8.366906084E-3
1.235814703E0,-2.817990184E-1,-1.715248972E-1,2.283093752E-3
1.240867255E0,-2.381339967E-1,-1.704598963E-1,1.186809409E-2
1.245919807E0,-1.934039891E-1,-1.715248972E-1,2.038809471E-2
1.250972307E0,-1.476089954E-1,-1.736548990E-1,2.997309342E-2
1.256024859E0,-1.060739979E-1,-1.661999077E-1,3.636309505E-2
1.261065172E0,-6.560400128E-2,-1.523548961E-1,4.488309473E-2
1.266117724E0,-3.365400061E-2,-1.353148967E-1,4.488309473E-2
1.271170276E0,-5.963999778E-3,-1.022999063E-1,4.488309473E-2
1.276222828E0,1.427100040E-2,-7.354491204E-2,4.275309294E-2
1.281275328E0,2.705099992E-2,-4.798490554E-2,3.955809027E-2
1.286327880E0,3.344099969E-2,-2.668490633E-2,3.423309326E-2
1.291373922E0,3.770099953E-2,-1.177490689E-2,3.210309148E-2
1.296426474E0,3.663599864E-2,-5.384906661E-3,3.210309148E-2
1.301479026E0,3.024599887E-2,4.200093914E-3,3.103809431E-2
1.306531578E0,1.959599927E-2,1.272009313E-2,2.997309342E-2
1.311584078E0,4.685999826E-3,2.124009468E-2,2.571309358E-2
1.316636630E0,-1.128899958E-2,2.763009444E-2,2.145309374E-2
1.321683453E0,-2.726400085E-2,2.550009452E-2,1.932309382E-2
1.326736005E0,-4.430400208E-2,2.124009468E-2,1.825809292E-2
1.331788609E0,-6.027900055E-2,1.698009484E-2,1.825809292E-2
1.336841109E0,-7.092899829E-2,9.525093250E-3,1.932309382E-2
1.341893609E0,-7.944899797E-2,3.135093488E-3,2.251809463E-2
1.346946161E0,-8.051399887E-2,-6.449906621E-3,2.038809471E-2
1.351978817E0,-7.412400097E-2,-1.070990600E-2,1.719309390E-2
1.357031370E0,-6.560400128E-2,-1.496990677E-2,8.673094213E-3
1.362083922E0,-5.601900071E-2,-1.816490479E-2,-3.041906282E-3
1.367136474E0,-4.643400013E-2,-1.816490479E-2,-1.688690670E-2
1.372189026E0,-3.578399867E-2,-1.922990568E-2,-2.966690622E-2
1.377241526E0,-2.513400093E-2,-2.242490463E-2,-4.244690388E-2
1.382287984E0,-1.341899950E-2,-2.561990544E-2,-5.416190624E-2
1.387340536E0,3.621000098E-3,-2.348990552E-2,-6.055190414E-2
1.392393140E0,1.959599927E-2,-2.455490641E-2,-6.055190414E-2
1.397445640E0,3.770099953E-2,-1.922990568E-2,-6.055190414E-2
1.402498140E0,5.793599784E-2,-1.709990576E-2,-5.842190981E-2
1.407550745E0,7.710599899E-2,-9.644906037E-3,-5.842190981E-2
1.412595380E0,9.521099925E-2,-1.177490689E-2,-5.948690325E-2
1.417647932E0,1.122509986E-1,-1.283990685E-2,-5.948690325E-2
1.422700484E0,1.229010001E-1,-1.177490689E-2,-6.481190771E-2
1.427753036E0,1.292910129E-1,-1.070990600E-2,-6.800691038E-2
1.432805536E0,1.303560138E-1,-7.514906116E-3,-6.694190949E-2
1.437858088E0,1.271610111E-1,-5.990627687E-5,-6.587690860E-2
1.442893765E0,1.175760031E-1,6.330093369E-3,-6.161690503E-2
1.447946317E0,1.090559959E-1,1.272009313E-2,-5.735690892E-2
1.452998870E0,9.840600193E-2,2.124009468E-2,-5.735690892E-2
1.458051422E0,8.456099778E-2,2.763009444E-2,-5.629190803E-2
1.463103922E0,7.284600288E-2,2.976009436E-2,-5.416190624E-2
1.468156526E0,6.113100052E-2,3.721509501E-2,-5.416190624E-2
1.473204130E0,5.474099889E-2,4.680009559E-2,-5.309690535E-2
1.478256682E0,4.835100099E-2,5.106009543E-2,-4.777190834E-2
1.483309234E0,4.835100099E-2,5.638509616E-2,-4.244690388E-2
1.488361734E0,4.728600010E-2,5.745009333E-2,-2.966690622E-2
1.493414286E0,4.835100099E-2,5.745009333E-2,-1.795190573E-2
1.498466838E0,5.580599979E-2,6.277509034E-2,-6.236906163E-3
1.503523349E0,6.645599753E-2,6.703509390E-2,4.413093906E-3
1.508575901E0,7.284600288E-2,7.023008913E-2,1.186809409E-2
1.513628453E0,8.243099600E-2,6.810008734E-2,1.719309390E-2
1.518680953E0,9.627600014E-2,6.703509390E-2,2.358309366E-2
1.523733505E0,1.037309989E-1,7.129509002E-2,3.103809431E-2
1.528786057E0,1.090559959E-1,7.662009448E-2,3.742809594E-2
1.533819390E0,1.143810004E-1,7.768508792E-2,4.275309294E-2
1.538871942E0,1.197059974E-1,7.768508792E-2,4.594809562E-2
1.543924495E0,1.197059974E-1,7.342509180E-2,4.807809740E-2
1.548976995E0,1.133159995E-1,6.703509390E-2,4.275309294E-2
1.554029547E0,1.058610007E-1,5.958009511E-2,3.636309505E-2
1.559082099E0,9.414599836E-2,4.999509454E-2,3.316809237E-2
1.564143192E0,8.243099600E-2,3.828009591E-2,2.784309350E-2
1.569195745E0,6.965100020E-2,2.550009452E-2,2.358309366E-2
1.574248297E0,5.474099889E-2,1.698009484E-2,2.251809463E-2
1.579300797E0,3.557099774E-2,6.330093369E-3,2.677809447E-2
1.584353349E0,1.746599935E-2,-6.449906621E-3,2.784309350E-2
1.589405901E0,2.555999905E-3,-2.029490471E-2,3.103809431E-2
1.594442203E0,-1.341899950E-2,-2.987990528E-2,3.636309505E-2
1.599494755E0,-3.258899972E-2,-3.733490407E-2,3.742809594E-2
1.604547307E0,-4.749900103E-2,-4.372490570E-2,3.849309683E-2
1.609599807E0,-6.134400144E-2,-5.011490732E-2,4.168809205E-2
1.614652359E0,-6.986399740E-2,-5.437490717E-2,4.807809740E-2
1.619704911E0,-7.412400097E-2,-6.076490507E-2,6.085809320E-2
1.624745953E0,-7.199399918E-2,-6.182990596E-2,7.257309556E-2
1.629798505E0,-6.986399740E-2,-5.969990417E-2,7.896309346E-2
1.634851057E0,-6.453900039E-2,-5.543990433E-2,8.215808868E-2
1.639903557E0,-6.027900055E-2,-4.904990643E-2,8.109309524E-2
1.644956109E0,-5.601900071E-2,-4.691990465E-2,7.789809257E-2
1.650008661E0,-5.282400176E-2,-5.011490732E-2,6.511808932E-2
1.655067359E0,-5.708400160E-2,-5.224490538E-2,5.446809530E-2
1.660119911E0,-5.921399966E-2,-6.182990596E-2,4.062309116E-2
1.665172463E0,-6.347399950E-2,-6.928490847E-2,2.784309350E-2
1.670224963E0,-6.666900218E-2,-7.567490637E-2,2.145309374E-2
1.675277515E0,-6.666900218E-2,-7.567490637E-2,1.506309398E-2
1.680330067E0,-6.560400128E-2,-7.460991293E-2,8.673094213E-3
1.685356422E0,-6.453900039E-2,-7.034990937E-2,6.543093827E-3
1.690408974E0,-6.027900055E-2,-6.715490669E-2,2.283093752E-3
1.695461474E0,-5.495399982E-2,-6.502491236E-2,-9.119062452E-4
1.700514026E0,-4.962899908E-2,-6.076490507E-2,-4.106906243E-3
1.705566578E0,-4.643400013E-2,-5.330990627E-2,-4.106906243E-3
1.710619130E0,-4.110899940E-2,-4.372490570E-2,-9.119062452E-4
1.715663922E0,-3.365400061E-2,-3.626990691E-2,1.530938316E-4
1.720716474E0,-3.045899980E-2,-2.561990544E-2,3.348093713E-3
1.725769026E0,-2.832899988E-2,-2.135990560E-2,7.608093787E-3
1.730821578E0,-2.832899988E-2,-2.242490463E-2,9.738094173E-3
1.735874078E0,-3.045899980E-2,-2.348990552E-2,1.293309405E-2
1.740926630E0,-3.365400061E-2,-2.348990552E-2,1.399809401E-2
1.745971630E0,-3.684899956E-2,-2.029490471E-2,1.186809409E-2
1.751024182E0,-4.004400223E-2,-1.603490487E-2,7.608093787E-3
1.756076734E0,-4.217400029E-2,-6.449906621E-3,6.543093827E-3
1.761129234E0,-4.217400029E-2,8.460094221E-3,2.283093752E-3
1.766181786E0,-3.897900134E-2,2.443509363E-2,-1.976906089E-3
1.771234338E0,-3.365400061E-2,4.254009575E-2,-8.366906084E-3
1.776280432E0,-2.406900004E-2,5.638509616E-2,-1.262690593E-2
1.781332984E0,-1.128899958E-2,6.064509600E-2,-1.688690670E-2
1.786385536E0,2.555999905E-3,6.384009123E-2,-2.327690646E-2
1.791438036E0,1.640100032E-2,6.384009123E-2,-3.286190331E-2
1.796490588E0,2.811599895E-2,5.745009333E-2,-4.351190478E-2
1.801543140E0,3.983100131E-2,5.851509422E-2,-5.309690535E-2
1.806583140E0,4.622099921E-2,5.532009527E-2,-6.587690860E-2
1.811635692E0,5.154599994E-2,5.106009543E-2,-7.546190917E-2
1.816688245E0,5.048099905E-2,4.680009559E-2,-8.717691153E-2
1.821740745E0,3.876600042E-2,3.508509323E-2,-9.356690943E-2
1.826793297E0,3.131099790E-2,2.017509378E-2,-9.676190466E-2
1.831845849E0,2.172599919E-2,1.378509402E-2,-9.463191032E-2
1.836900172E0,1.214100048E-2,8.460094221E-3,-9.356690943E-2
1.841952724E0,2.555999905E-3,6.330093369E-3,-9.463191032E-2
1.847005276E0,-8.093999699E-3,6.330093369E-3,-9.889190644E-2
1.852057776E0,-1.767900027E-2,7.395093795E-3,-9.889190644E-2
1.857110328E0,-2.619899996E-2,1.378509402E-2,-1.042169109E-1
1.862162880E0,-2.939400077E-2,1.804509386E-2,-1.074119061E-1
1.867201890E0,-3.471900150E-2,2.656509541E-2,-1.084769070E-1
1.872254442E0,-3.578399867E-2,3.082509525E-2,-1.020869091E-1
1.877306995E0,-3.258899972E-2,3.189009428E-2,-9.569691122E-2
1.882359495E0,-2.832899988E-2,3.082509525E-2,-8.504690975E-2
1.887412047E0,-2.300400101E-2,2.869509533E-2,-7.652691007E-2
1.892464599E0,-1.874400117E-2,2.976009436E-2,-6.800691038E-2
1.897500692E0,-8.093999699E-3,3.295509517E-2,-6.374690682E-2
1.902553245E0,-3.834000090E-3,3.508509323E-2,-5.842190981E-2
1.907605797E0,-3.834000090E-3,3.828009591E-2,-5.842190981E-2
1.912658349E0,-5.963999778E-3,4.467009380E-2,-6.481190771E-2
1.917710849E0,-1.022399962E-2,4.360509291E-2,-7.120190561E-2
1.922763401E0,-2.087400109E-2,3.828009591E-2,-7.865690440E-2
1.927840015E0,-3.045899980E-2,3.295509517E-2,-8.717691153E-2
1.932892567E0,-4.430400208E-2,3.402009606E-2,-9.569691122E-2
1.937945120E0,-5.921399966E-2,3.508509323E-2,-1.042169109E-1
1.942997620E0,-7.412400097E-2,3.615009412E-2,-1.159319058E-1
1.948050172E0,-8.690399677E-2,3.508509323E-2,-1.244519055E-1
1.953102724E0,-9.968400002E-2,3.402009606E-2,-1.329719126E-1
1.958128817E0,-1.071389988E-1,2.656509541E-2,-1.361669153E-1
1.963181370E0,-1.113990024E-1,2.443509363E-2,-1.382969022E-1
1.968233922E0,-1.135290042E-1,2.017509378E-2,-1.361669153E-1
1.973286422E0,-1.103340015E-1,1.911009476E-2,-1.297769099E-1
1.978338974E0,-1.060739979E-1,1.804509386E-2,-1.223219112E-1
1.983391526E0,-9.861899912E-2,1.911009476E-2,-1.127369106E-1
1.988425901E0,-9.009899944E-2,2.017509378E-2,-9.995690733E-2
1.993478453E0,-8.157899976E-2,2.656509541E-2,-8.930690587E-2
1.998531005E0,-7.092899829E-2,3.615009412E-2,-7.865690440E-2
2.003583505E0,-6.453900039E-2,4.254009575E-2,-6.907191128E-2
2.008636057E0,-5.708400160E-2,4.360509291E-2,-5.948690325E-2
2.013688609E0,-5.388899893E-2,4.147509485E-2,-5.416190624E-2
2.018743609E0,-4.856400192E-2,3.295509517E-2,-4.990190268E-2
2.023796161E0,-4.536899924E-2,2.763009444E-2,-4.777190834E-2
2.028848713E0,-4.217400029E-2,2.550009452E-2,-4.564190656E-2
2.033901213E0,-3.684899956E-2,2.763009444E-2,-4.777190834E-2
2.038953765E0,-3.578399867E-2,2.763009444E-2,-4.990190268E-2
2.044006317E0,-3.258899972E-2,2.976009436E-2,-5.096690357E-2
2.049056370E0,-2.726400085E-2,2.656509541E-2,-4.990190268E-2
2.054108922E0,-2.513400093E-2,2.017509378E-2,-5.096690357E-2
2.059161474E0,-2.087400109E-2,2.230509371E-2,-5.096690357E-2
2.064214026E0,-1.661400124E-2,3.082509525E-2,-4.564190656E-2
2.069266526E0,-1.554899942E-2,4.147509485E-2,-4.031690955E-2
2.074319078E0,-1.022399962E-2,5.745009333E-2,-3.392690420E-2
2.079351838E0,-1.128899958E-2,7.129509002E-2,-2.434190549E-2
2.084403297E0,-1.022399962E-2,8.088009059E-2,-1.582190581E-2
2.089454755E0,-1.235399954E-2,8.514009416E-2,-1.156190597E-2
2.094506213E0,-1.767900027E-2,8.088009059E-2,-8.366906084E-3
2.099557672E0,-2.193900011E-2,6.597009301E-2,-5.171906203E-3
2.104609130E0,-2.939400077E-2,4.893009365E-2,-8.366906084E-3
2.109651005E0,-3.791400045E-2,2.869509533E-2,-1.369190589E-2
2.114702463E0,-4.110899940E-2,1.165509317E-2,-2.114690654E-2
2.119753922E0,-4.323900118E-2,-1.124906237E-3,-3.073190711E-2
2.124805380E0,-4.430400208E-2,-5.384906661E-3,-3.818690777E-2
2.129856838E0,-4.430400208E-2,-1.390490681E-2,-4.457690567E-2
2.134908297E0,-4.004400223E-2,-1.922990568E-2,-4.990190268E-2
2.139961109E0,-3.152399883E-2,-2.348990552E-2,-5.309690535E-2
2.145012567E0,-2.406900004E-2,-2.242490463E-2,-5.309690535E-2
2.150064026E0,-8.093999699E-3,-2.029490471E-2,-4.777190834E-2
2.155115484E0,1.107600052E-2,-1.283990685E-2,-4.138190299E-2
2.160166942E0,3.131099790E-2,3.135093488E-3,-3.392690420E-2
2.165218349E0,5.048099905E-2,2.017509378E-2,-2.434190549E-2
2.170272463E0,6.752099842E-2,2.869509533E-2,-2.221190557E-2
2.175323922E0,7.923600078E-2,3.615009412E-2,-1.688690670E-2
2.180375380E0,8.562599868E-2,4.360509291E-2,-1.475690585E-2
2.185426838E0,8.775600046E-2,4.360509291E-2,-8.366906084E-3
2.190478297E0,8.030100167E-2,3.721509501E-2,-5.171906203E-3
2.195529755E0,7.071600109E-2,2.869509533E-2,-1.976906089E-3
2.200584338E0,5.580599979E-2,1.911009476E-2,4.413093906E-3
2.205635797E0,3.663599864E-2,1.378509402E-2,9.738094173E-3
2.210687255E0,1.853100024E-2,9.525093250E-3,1.612809300E-2
2.215738713E0,4.259999841E-4,3.135093488E-3,1.825809292E-2
2.220790172E0,-9.158999659E-3,-5.990627687E-5,2.145309374E-2
2.225841630E0,-1.874400117E-2,-4.319906235E-3,2.464809455E-2
2.230896057E0,-2.513400093E-2,-7.514906116E-3,2.677809447E-2
2.235947463E0,-2.087400109E-2,-5.384906661E-3,2.464809455E-2
2.240998922E0,-1.448399946E-2,-3.254906274E-3,2.251809463E-2
2.246050380E0,4.259999841E-4,-5.990627687E-5,2.358309366E-2
2.251101838E0,1.746599935E-2,3.135093488E-3,2.358309366E-2
2.256153297E0,3.557099774E-2,6.330093369E-3,2.145309374E-2
2.261204234E0,5.367599800E-2,5.265093409E-3,2.145309374E-2
2.266255692E0,7.071600109E-2,7.395093795E-3,2.038809471E-2
2.271307151E0,8.136600256E-2,1.165509317E-2,2.251809463E-2
2.276358609E0,9.201599658E-2,1.591509394E-2,2.251809463E-2
2.281410067E0,9.308099747E-2,1.804509386E-2,2.145309374E-2
2.286461474E0,8.882100135E-2,1.804509386E-2,2.038809471E-2
2.291501942E0,7.923600078E-2,1.378509402E-2,1.825809292E-2
2.296553401E0,6.432600319E-2,5.265093409E-3,1.293309405E-2
2.301604859E0,4.835100099E-2,-4.319906235E-3,8.673094213E-3
2.306656317E0,3.024599887E-2,-1.390490681E-2,2.283093752E-3
2.311707776E0,1.320600044E-2,-2.135990560E-2,-4.106906243E-3
2.316759234E0,-1.704000053E-3,-3.094490618E-2,-8.366906084E-3
2.321810640E0,-1.341899950E-2,-3.307490423E-2,-1.156190597E-2
2.326862099E0,-2.300400101E-2,-3.626990691E-2,-1.049690600E-2
2.331913557E0,-2.726400085E-2,-4.372490570E-2,-8.366906084E-3
2.336965015E0,-3.258899972E-2,-4.372490570E-2,-9.119062452E-4
2.342016474E0,-2.726400085E-2,-4.585490376E-2,5.478093866E-3
2.347067932E0,-2.300400101E-2,-4.691990465E-2,1.506309398E-2
2.352116317E0,-1.448399946E-2,-4.798490554E-2,2.464809455E-2
2.357167776E0,-3.834000090E-3,-4.052990675E-2,3.103809431E-2
2.362219234E0,7.881000638E-3,-2.881490625E-2,3.423309326E-2
2.367270692E0,1.959599927E-2,-2.135990560E-2,4.062309116E-2
2.372322151E0,2.918099985E-2,-1.496990677E-2,4.275309294E-2
2.377373609E0,3.557099774E-2,-5.384906661E-3,4.594809562E-2
2.382426109E0,4.409100115E-2,-5.990627687E-5,4.701309651E-2
2.387477567E0,5.048099905E-2,7.395093795E-3,4.914309084E-2
2.392529026E0,5.048099905E-2,1.272009313E-2,5.233809352E-2
2.397580484E0,4.941599816E-2,1.591509394E-2,4.914309084E-2
2.402631942E0,4.302600026E-2,2.230509371E-2,4.594809562E-2
2.407683401E0,3.024599887E-2,3.189009428E-2,3.955809027E-2
2.412697307E0,1.320600044E-2,3.934509307E-2,3.742809594E-2
2.417748765E0,-1.128899958E-2,4.573509470E-2,3.529809415E-2
2.422800224E0,-3.365400061E-2,5.425509438E-2,3.529809415E-2
2.427851682E0,-6.134400144E-2,6.490509212E-2,3.742809594E-2
2.432903140E0,-9.009899944E-2,6.703509390E-2,4.062309116E-2
2.437954599E0,-1.177890003E-1,6.916508824E-2,4.381809384E-2
2.443039963E0,-1.476089954E-1,6.171009317E-2,4.062309116E-2
2.448091422E0,-1.742339879E-1,5.106009543E-2,3.529809415E-2
2.453142880E0,-2.019239962E-1,3.402009606E-2,2.784309350E-2
2.458194338E0,-2.232239991E-1,1.165509317E-2,1.399809401E-2
2.463245797E0,-2.381339967E-1,-6.449906621E-3,1.218093792E-3
2.468297255E0,-2.519789934E-1,-3.094490618E-2,-1.262690593E-2
2.473346734E0,-2.604990005E-1,-5.543990433E-2,-2.008190565E-2
2.478398192E0,-2.573040128E-1,-7.247991115E-2,-2.540690638E-2
2.483449651E0,-2.530440092E-1,-8.632490784E-2,-3.179690987E-2
2.488501109E0,-2.434589863E-1,-9.271490574E-2,-3.605690598E-2
2.493552567E0,-2.242890000E-1,-9.271490574E-2,-3.179690987E-2
2.498604026E0,-2.040539980E-1,-8.845490962E-2,-3.179690987E-2
2.503662411E0,-1.795589924E-1,-8.099991083E-2,-2.966690622E-2
2.508713870E0,-1.518689990E-1,-7.460991293E-2,-2.434190549E-2
2.513765328E0,-1.241789982E-1,-6.928490847E-2,-2.114690654E-2
2.518816786E0,-9.222900122E-2,-6.608990580E-2,-1.156190597E-2
2.523868245E0,-6.347399950E-2,-5.224490538E-2,2.283093752E-3
2.528919703E0,-3.258899972E-2,-4.159490392E-2,1.293309405E-2
2.533957255E0,-5.963999778E-3,-3.200990707E-2,2.784309350E-2
2.539008713E0,1.746599935E-2,-1.922990568E-2,4.168809205E-2
2.544060172E0,3.557099774E-2,-7.514906116E-3,5.446809530E-2
2.549111630E0,4.941599816E-2,6.330093369E-3,6.298809499E-2
2.554163088E0,5.793599784E-2,1.804509386E-2,7.044309378E-2
2.559214547E0,5.793599784E-2,3.615009412E-2,7.470308989E-2
2.564292515E0,5.367599800E-2,4.467009380E-2,8.002809435E-2
2.569343974E0,4.515599832E-2,4.786509275E-2,8.641809225E-2
2.574395432E0,3.237599880E-2,4.893009365E-2,9.174308926E-2
2.579446890E0,1.640100032E-2,3.721509501E-2,9.387309104E-2
2.584498349E0,-2.768999897E-3,2.443509363E-2,9.493809193E-2
2.589549755E0,-2.087400109E-2,9.525093250E-3,9.067808837E-2
2.594634390E0,-3.791400045E-2,-9.644906037E-3,8.428809047E-2
2.599685849E0,-5.282400176E-2,-2.348990552E-2,7.150809467E-2
2.604737255E0,-6.666900218E-2,-4.052990675E-2,5.872809142E-2
2.609788765E0,-7.412400097E-2,-5.011490732E-2,4.381809384E-2
2.614840224E0,-7.944899797E-2,-6.076490507E-2,2.997309342E-2
2.619891682E0,-8.370900154E-2,-6.928490847E-2,1.399809401E-2
2.624875224E0,-8.157899976E-2,-7.354491204E-2,2.283093752E-3
2.629926682E0,-7.838399708E-2,-7.141491026E-2,-6.236906163E-3
2.634978140E0,-7.092899829E-2,-6.821990758E-2,-1.049690600E-2
2.640029599E0,-5.708400160E-2,-5.969990417E-2,-1.262690593E-2
2.645081057E0,-4.323900118E-2,-5.011490732E-2,-1.049690600E-2
2.650132515E0,-2.726400085E-2,-4.691990465E-2,-6.236906163E-3
2.655192672E0,-1.128899958E-2,-4.585490376E-2,1.218093792E-3
2.660244078E0,2.555999905E-3,-4.052990675E-2,9.738094173E-3
2.665295588E0,1.640100032E-2,-3.200990707E-2,2.251809463E-2
2.670347047E0,3.131099790E-2,-2.348990552E-2,3.742809594E-2
2.675398505E0,4.196099937E-2,-1.603490487E-2,5.127309263E-2
2.680449963E0,5.048099905E-2,-1.283990685E-2,6.085809320E-2
2.685486682E0,5.900099874E-2,-2.242490463E-2,6.724809110E-2
2.690538140E0,6.965100020E-2,-3.626990691E-2,7.257309556E-2
2.695589599E0,7.497599721E-2,-4.798490554E-2,7.789809257E-2
2.700641057E0,8.030100167E-2,-5.543990433E-2,8.215808868E-2
2.705692515E0,8.775600046E-2,-5.969990417E-2,8.322308958E-2
2.710743974E0,8.775600046E-2,-5.863490701E-2,8.002809435E-2
2.715809130E0,8.669099957E-2,-6.076490507E-2,7.683309168E-2
2.720860588E0,8.775600046E-2,-5.650490522E-2,7.683309168E-2
2.725912047E0,8.562599868E-2,-5.756990612E-2,7.576809078E-2
2.730963505E0,8.988600224E-2,-4.798490554E-2,7.470308989E-2
2.736014963E0,9.627600014E-2,-3.946490586E-2,7.683309168E-2
2.741066422E0,1.047959998E-1,-3.413990512E-2,8.002809435E-2
2.746120120E0,1.133159995E-1,-2.774990536E-2,7.789809257E-2
2.751171526E0,1.186409965E-1,-2.774990536E-2,7.683309168E-2
2.756223036E0,1.239660010E-1,-3.307490423E-2,7.150809467E-2
2.761274495E0,1.260960102E-1,-3.626990691E-2,6.085809320E-2
2.766325953E0,1.282260120E-1,-3.200990707E-2,5.233809352E-2
2.771377359E0,1.292910129E-1,-2.774990536E-2,4.914309084E-2
2.776413765E0,1.303560138E-1,-2.242490463E-2,4.488309473E-2
2.781465224E0,1.282260120E-1,-1.496990677E-2,4.488309473E-2
2.786516682E0,1.292910129E-1,-1.283990685E-2,4.807809740E-2
2.791568088E0,1.271610111E-1,-1.070990600E-2,5.020809174E-2
2.796619599E0,1.303560138E-1,-1.070990600E-2,5.127309263E-2
2.801671057E0,1.250310093E-1,-4.319906235E-3,5.020809174E-2
2.806714495E0,1.239660010E-1,3.135093488E-3,5.127309263E-2
2.811765953E0,1.165110022E-1,8.460094221E-3,4.914309084E-2
2.816817411E0,1.122509986E-1,1.272009313E-2,5.020809174E-2
2.821868870E0,1.079910025E-1,1.485009398E-2,4.807809740E-2
2.826920328E0,1.016009971E-1,1.591509394E-2,4.381809384E-2
2.831971734E0,9.201599658E-2,1.378509402E-2,3.955809027E-2
2.837025588E0,8.030100167E-2,1.165509317E-2,3.210309148E-2
2.842077047E0,6.539099663E-2,8.460094221E-3,2.251809463E-2
2.847128453E0,4.835100099E-2,7.395093795E-3,1.506309398E-2
2.852179963E0,2.918099985E-2,5.265093409E-3,4.413093906E-3
2.857231422E0,1.001100056E-2,4.200093914E-3,-1.976906089E-3
2.862282880E0,-4.898999818E-3,6.330093369E-3,-9.431906044E-3
2.867347620E0,-2.300400101E-2,6.330093369E-3,-1.262690593E-2
2.872399130E0,-4.217400029E-2,3.135093488E-3,-1.795190573E-2
2.877450588E0,-5.814899877E-2,-3.254906274E-3,-2.008190565E-2
2.882502047E0,-6.879900396E-2,-7.514906116E-3,-2.434190549E-2
2.887553505E0,-7.731900364E-2,-1.177490689E-2,-2.860190533E-2
2.892604963E0,-8.157899976E-2,-7.514906116E-3,-2.753690630E-2
2.897652411E0,-8.264400065E-2,-1.124906237E-3,-2.753690630E-2
2.902703870E0,-7.838399708E-2,3.135093488E-3,-2.327690646E-2
2.907755328E0,-7.305900007E-2,4.200093914E-3,-1.795190573E-2
2.912806786E0,-6.560400128E-2,7.395093795E-3,-1.262690593E-2
2.917858245E0,-5.388899893E-2,8.460094221E-3,-7.301906124E-3
2.922909703E0,-4.323900118E-2,9.525093250E-3,1.218093792E-3
2.927966265E0,-3.045899980E-2,1.272009313E-2,1.080309413E-2
2.933017724E0,-1.341899950E-2,1.485009398E-2,1.932309382E-2
2.938069182E0,4.685999826E-3,1.911009476E-2,2.464809455E-2
2.943120640E0,1.533600036E-2,1.911009476E-2,3.103809431E-2
2.948172099E0,2.811599895E-2,1.591509394E-2,3.423309326E-2
2.953223505E0,3.770099953E-2,1.059009321E-2,2.997309342E-2
2.958265380E0,4.196099937E-2,2.070093527E-3,2.784309350E-2
2.963316838E0,4.409100115E-2,-8.579906076E-3,2.464809455E-2
2.968368297E0,4.515599832E-2,-1.922990568E-2,1.932309382E-2
2.973419755E0,4.302600026E-2,-3.413990512E-2,1.399809401E-2
2.978471213E0,3.344099969E-2,-4.478990659E-2,1.186809409E-2
2.983522672E0,2.811599895E-2,-5.543990433E-2,1.080309413E-2
2.988580067E0,2.385599911E-2,-5.437490717E-2,9.738094173E-3
2.993631474E0,1.853100024E-2,-4.904990643E-2,9.738094173E-3
2.998682984E0,1.533600036E-2,-4.052990675E-2,7.608093787E-3
3.003734442E0,1.107600052E-2,-3.200990707E-2,7.608093787E-3
3.008785901E0,1.214100048E-2,-2.135990560E-2,5.478093866E-3
3.013837307E0,1.320600044E-2,-1.390490681E-2,4.413093906E-3
3.018866942E0,1.427100040E-2,-8.579906076E-3,5.478093866E-3
3.023918401E0,1.640100032E-2,-2.189906314E-3,1.080309413E-2
3.028969859E0,2.279100008E-2,9.525093250E-3,1.932309382E-2
3.034021317E0,3.131099790E-2,1.911009476E-2,2.677809447E-2
3.039072776E0,4.089599848E-2,2.017509378E-2,3.316809237E-2
3.044124234E0,4.941599816E-2,1.591509394E-2,4.381809384E-2
3.049182047E0,6.006599963E-2,6.330093369E-3,5.340309441E-2
3.054233505E0,7.604099810E-2,2.070093527E-3,5.872809142E-2
3.059284963E0,9.201599658E-2,-1.124906237E-3,5.872809142E-2
3.064336422E0,1.058610007E-1,3.135093488E-3,5.553309619E-2
3.069387880E0,1.207709983E-1,9.525093250E-3,5.127309263E-2
3.074439338E0,1.367460042E-1,4.200093914E-3,4.701309651E-2
3.079495953E0,1.527210027E-1,-1.124906237E-3,4.062309116E-2
3.084547203E0,1.655010134E-1,-8.579906076E-3,3.529809415E-2
3.089598505E0,1.825410128E-1,-2.668490633E-2,3.423309326E-2
3.094649755E0,2.102310061E-1,-5.437490717E-2,3.955809027E-2
3.099701057E0,2.421810031E-1,-6.289491057E-2,4.488309473E-2
3.104752359E0,2.847809792E-1,-4.585490376E-2,4.807809740E-2
3.109802672E0,3.305760026E-1,-1.070990600E-2,4.701309651E-2
3.114853922E0,3.763709962E-1,2.124009468E-2,3.742809594E-2
3.119905224E0,4.072559774E-1,4.147509485E-2,2.571309358E-2
3.124956474E0,4.296209812E-1,4.680009559E-2,1.399809401E-2
3.130007724E0,4.424009919E-1,3.828009591E-2,4.413093906E-3
3.135059078E0,4.445309937E-1,2.443509363E-2,-3.041906282E-3
3.140098817E0,4.370760024E-1,1.911009476E-2,-3.041906282E-3
3.145150120E0,4.211010039E-1,1.698009484E-2,5.478093866E-3
3.150201370E0,3.934109807E-1,1.911009476E-2,1.399809401E-2
3.155252672E0,3.572009802E-1,1.698009484E-2,2.251809463E-2
3.160303922E0,3.146010041E-1,5.265093409E-3,2.997309342E-2
3.165355224E0,2.688059807E-1,-8.579906076E-3,3.636309505E-2
3.170403088E0,2.262060046E-1,-1.603490487E-2,3.955809027E-2
3.175454390E0,1.836060137E-1,-1.816490479E-2,4.062309116E-2
3.180505640E0,1.420710087E-1,-1.177490689E-2,3.742809594E-2
3.185556942E0,1.079910025E-1,3.135093488E-3,3.210309148E-2
3.190608192E0,7.178100199E-2,1.165509317E-2,2.145309374E-2
3.195659442E0,3.663599864E-2,1.485009398E-2,1.186809409E-2
3.200719599E0,6.816000212E-3,1.485009398E-2,2.283093752E-3
3.205770901E0,-2.087400109E-2,1.485009398E-2,-1.976906089E-3
3.210822151E0,-4.217400029E-2,1.485009398E-2,-6.236906163E-3
3.215873453E0,-5.921399966E-2,1.272009313E-2,-8.366906084E-3
3.220924703E0,-7.518900186E-2,1.059009321E-2,-6.236906163E-3
3.225976005E0,-8.903399855E-2,3.135093488E-3,-3.041906282E-3
3.231026057E0,-9.648899734E-2,-4.319906235E-3,-1.976906089E-3
3.236077307E0,-1.060739979E-1,-1.390490681E-2,-4.106906243E-3
3.241128609E0,-1.145939976E-1,-2.668490633E-2,-1.976906089E-3
3.246179859E0,-1.209840029E-1,-3.946490586E-2,-3.041906282E-3
3.251231161E0,-1.252439916E-1,-4.585490376E-2,-1.976906089E-3
3.256282463E0,-1.231139973E-1,-4.372490570E-2,1.530938316E-4
3.261333505E0,-1.199190021E-1,-4.265990481E-2,1.218093792E-3
3.266384755E0,-1.103340015E-1,-4.159490392E-2,3.348093713E-3
3.271436057E0,-1.007490009E-1,-3.733490407E-2,7.608093787E-3
3.276487307E0,-9.116400033E-2,-3.626990691E-2,6.543093827E-3
3.281538609E0,-7.838399708E-2,-3.626990691E-2,4.413093906E-3
3.286589859E0,-6.773400307E-2,-3.839990497E-2,3.348093713E-3
3.291640588E0,-5.601900071E-2,-3.626990691E-2,3.348093713E-3
3.296691942E0,-4.004400223E-2,-3.094490618E-2,6.543093827E-3
3.301743192E0,-2.832899988E-2,-3.200990707E-2,7.608093787E-3
3.306794495E0,-1.448399946E-2,-3.200990707E-2,8.673094213E-3
3.311845745E0,-3.834000090E-3,-3.626990691E-2,9.738094173E-3
3.316897047E0,4.685999826E-3,-4.052990675E-2,9.738094173E-3
3.321962099E0,1.427100040E-2,-3.626990691E-2,1.186809409E-2
3.327013349E0,2.172599919E-2,-3.626990691E-2,1.825809292E-2
3.332064703E0,2.811599895E-2,-3.413990512E-2,1.506309398E-2
3.337115953E0,2.918099985E-2,-2.561990544E-2,1.612809300E-2
3.342167255E0,3.557099774E-2,-1.816490479E-2,2.038809471E-2
3.347218505E0,3.770099953E-2,-8.579906076E-3,2.038809471E-2
3.352249547E0,3.663599864E-2,-1.124906237E-3,1.719309390E-2
3.357300849E0,3.450600058E-2,1.005093683E-3,1.186809409E-2
3.362352151E0,2.918099985E-2,1.005093683E-3,7.608093787E-3
3.367403401E0,2.492100000E-2,-6.449906621E-3,4.413093906E-3
3.372454703E0,2.172599919E-2,-1.177490689E-2,-4.106906243E-3
3.377505953E0,2.172599919E-2,-1.283990685E-2,-1.049690600E-2
3.382568140E0,2.172599919E-2,-1.177490689E-2,-1.688690670E-2
3.387619442E0,2.066100016E-2,-1.390490681E-2,-2.327690646E-2
3.392670745E0,2.279100008E-2,-1.709990576E-2,-2.966690622E-2
3.397721995E0,2.598599903E-2,-1.816490479E-2,-3.605690598E-2
3.402773245E0,2.705099992E-2,-1.922990568E-2,-3.818690777E-2
3.407824495E0,3.024599887E-2,-2.668490633E-2,-3.925190866E-2
3.412879078E0,3.344099969E-2,-2.881490625E-2,-3.605690598E-2
3.417930380E0,3.770099953E-2,-2.987990528E-2,-2.860190533E-2
3.422981630E0,4.409100115E-2,-2.774990536E-2,-1.901690662E-2
3.428032880E0,5.048099905E-2,-2.029490471E-2,-7.301906124E-3
3.433084182E0,6.006599963E-2,-5.384906661E-3,7.608093787E-3
3.438135432E0,6.645599753E-2,1.165509317E-2,1.825809292E-2
3.443146265E0,7.284600288E-2,3.295509517E-2,2.571309358E-2
3.448197515E0,7.710599899E-2,4.893009365E-2,3.423309326E-2
3.453248817E0,8.136600256E-2,6.171009317E-2,4.275309294E-2
3.458300067E0,8.349599689E-2,6.916508824E-2,4.807809740E-2
3.463351370E0,8.456099778E-2,7.981508970E-2,5.340309441E-2
3.468402620E0,8.243099600E-2,8.727008849E-2,5.979309231E-2
3.473456005E0,7.817099988E-2,8.514009416E-2,6.298809499E-2
3.478507255E0,7.710599899E-2,7.662009448E-2,6.405308843E-2
3.483558557E0,7.391099632E-2,6.597009301E-2,5.872809142E-2
3.488609859E0,6.752099842E-2,4.893009365E-2,5.127309263E-2
3.493661109E0,6.219599769E-2,3.189009428E-2,4.275309294E-2
3.498712411E0,5.367599800E-2,1.485009398E-2,2.890809439E-2
3.503782984E0,4.622099921E-2,-2.189906314E-3,1.506309398E-2
3.508834286E0,3.450600058E-2,-1.709990576E-2,2.283093752E-3
3.513885588E0,2.066100016E-2,-3.307490423E-2,-8.366906084E-3
3.518936838E0,6.816000212E-3,-4.159490392E-2,-1.369190589E-2
3.523988088E0,-4.898999818E-3,-4.904990643E-2,-1.582190581E-2
3.529039390E0,-1.874400117E-2,-5.330990627E-2,-1.582190581E-2
3.534087724E0,-2.726400085E-2,-5.543990433E-2,-1.262690593E-2
3.539139026E0,-3.365400061E-2,-5.330990627E-2,-5.171906203E-3
3.544190328E0,-3.791400045E-2,-5.117990449E-2,1.218093792E-3
3.549241578E0,-3.897900134E-2,-4.478990659E-2,8.673094213E-3
3.554292880E0,-3.578399867E-2,-4.052990675E-2,1.719309390E-2
3.559344130E0,-2.726400085E-2,-3.626990691E-2,2.464809455E-2
3.564393140E0,-2.406900004E-2,-2.987990528E-2,2.997309342E-2
3.569444442E0,-1.980900019E-2,-2.029490471E-2,3.423309326E-2
3.574495692E0,-1.554899942E-2,-1.283990685E-2,3.636309505E-2
3.579546995E0,-1.448399946E-2,-5.384906661E-3,3.742809594E-2
3.584598245E0,-1.022399962E-2,1.005093683E-3,4.062309116E-2
3.589649547E0,-1.448399946E-2,3.135093488E-3,3.955809027E-2
3.594707984E0,-1.767900027E-2,9.525093250E-3,3.529809415E-2
3.599759234E0,-2.193900011E-2,1.165509317E-2,2.890809439E-2
3.604810484E0,-3.045899980E-2,9.525093250E-3,1.719309390E-2
3.609861786E0,-4.217400029E-2,1.378509402E-2,5.478093866E-3
3.614913088E0,-5.495399982E-2,1.165509317E-2,-4.106906243E-3
3.619964390E0,-6.986399740E-2,1.059009321E-2,-9.431906044E-3
3.625018817E0,-8.157899976E-2,2.070093527E-3,-1.156190597E-2
3.630070067E0,-9.222900122E-2,-5.384906661E-3,-4.106906243E-3
3.635121370E0,-1.018140018E-1,-9.644906037E-3,4.413093906E-3
3.640172620E0,-1.050089970E-1,-1.496990677E-2,1.506309398E-2
3.645223870E0,-1.050089970E-1,-1.816490479E-2,2.464809455E-2
3.650275224E0,-1.039440036E-1,-1.816490479E-2,3.210309148E-2
3.655330120E0,-9.755399823E-2,-2.135990560E-2,3.955809027E-2
3.660381370E0,-8.690399677E-2,-1.709990576E-2,4.488309473E-2
3.665432620E0,-7.625400275E-2,-1.177490689E-2,4.594809562E-2
3.670483922E0,-6.560400128E-2,-6.449906621E-3,4.381809384E-2
3.675535172E0,-5.388899893E-2,-5.990627687E-5,4.168809205E-2
3.680586526E0,-4.430400208E-2,3.135093488E-3,3.742809594E-2
3.685619078E0,-4.004400223E-2,1.005093683E-3,3.742809594E-2
3.690670380E0,-3.152399883E-2,-5.990627687E-5,3.636309505E-2
3.695721630E0,-2.513400093E-2,-5.384906661E-3,3.849309683E-2
3.700772880E0,-2.406900004E-2,-1.283990685E-2,4.168809205E-2
3.705824182E0,-1.874400117E-2,-1.922990568E-2,4.488309473E-2
3.710875484E0,-1.341899950E-2,-2.455490641E-2,5.340309441E-2
3.715948817E0,-7.029000204E-3,-2.561990544E-2,6.085809320E-2
3.721000067E0,1.490999945E-3,-2.455490641E-2,6.724809110E-2
3.726051370E0,8.946000598E-3,-1.922990568E-2,6.937809289E-2
3.731102672E0,1.746599935E-2,-1.283990685E-2,7.257309556E-2
3.736153922E0,2.172599919E-2,-5.384906661E-3,7.257309556E-2
3.741205224E0,2.598599903E-2,4.200093914E-3,7.150809467E-2
3.746287724E0,2.918099985E-2,7.395093795E-3,7.257309556E-2
3.751339026E0,2.918099985E-2,9.525093250E-3,7.257309556E-2
3.756390328E0,2.705099992E-2,8.460094221E-3,7.470308989E-2
3.761441578E0,2.598599903E-2,-5.990627687E-5,7.257309556E-2
3.766492828E0,2.385599911E-2,-1.070990600E-2,6.937809289E-2
3.771544130E0,2.066100016E-2,-2.774990536E-2,6.298809499E-2
3.776553713E0,1.853100024E-2,-3.839990497E-2,5.766309053E-2
3.781604963E0,1.746599935E-2,-4.585490376E-2,5.233809352E-2
3.786656265E0,2.172599919E-2,-5.224490538E-2,4.701309651E-2
3.791707515E0,2.705099992E-2,-5.756990612E-2,4.062309116E-2
3.796758817E0,3.876600042E-2,-6.821990758E-2,3.423309326E-2
3.801810120E0,5.793599784E-2,-7.141491026E-2,2.784309350E-2
3.806860328E0,8.562599868E-2,-6.395991147E-2,2.890809439E-2
3.811911578E0,1.218359992E-1,-3.839990497E-2,2.890809439E-2
3.816962880E0,1.580460072E-1,-1.283990685E-2,3.103809431E-2
3.822014130E0,1.985160112E-1,6.330093369E-3,2.997309342E-2
3.827065432E0,2.379209995E-1,1.698009484E-2,2.890809439E-2
3.832116734E0,2.709359825E-1,1.698009484E-2,2.571309358E-2
3.837176005E0,3.018209934E-1,1.165509317E-2,2.145309374E-2
3.842227255E0,3.241859972E-1,3.135093488E-3,2.038809471E-2
3.847278557E0,3.390959799E-1,-4.319906235E-3,2.038809471E-2
3.852329807E0,3.454859853E-1,-7.514906116E-3,2.145309374E-2
3.857381109E0,3.454859853E-1,-1.283990685E-2,2.251809463E-2
3.862432411E0,3.412259817E-1,-1.496990677E-2,2.358309366E-2
3.867488713E0,3.327060044E-1,-1.603490487E-2,2.677809447E-2
3.872539963E0,3.231209815E-1,-3.254906274E-3,2.784309350E-2
3.877591265E0,3.082109988E-1,2.124009468E-2,2.890809439E-2
3.882642567E0,2.890409827E-1,3.828009591E-2,2.890809439E-2
3.887693817E0,2.741310000E-1,4.467009380E-2,2.890809439E-2
3.892745120E0,2.602860034E-1,4.573509470E-2,2.997309342E-2
3.897779338E0,2.453760058E-1,4.999509454E-2,2.784309350E-2
3.902830588E0,2.325960100E-1,6.171009317E-2,2.784309350E-2
3.907881890E0,2.219460011E-1,6.703509390E-2,2.677809447E-2
3.912933192E0,2.091660053E-1,6.171009317E-2,2.784309350E-2
3.917984442E0,1.931910068E-1,5.638509616E-2,2.677809447E-2
3.923035745E0,1.740210056E-1,5.106009543E-2,2.997309342E-2
3.928074599E0,1.548510045E-1,4.786509275E-2,2.997309342E-2
3.933125901E0,1.335510015E-1,4.573509470E-2,3.423309326E-2
3.938177203E0,1.122509986E-1,3.828009591E-2,3.849309683E-2
3.943228453E0,9.095100313E-2,3.508509323E-2,4.168809205E-2
3.948279755E0,6.858599931E-2,3.508509323E-2,4.701309651E-2
3.953331005E0,4.622099921E-2,3.721509501E-2,4.914309084E-2
3.958397880E0,2.492100000E-2,4.147509485E-2,5.020809174E-2
3.963449130E0,6.816000212E-3,4.573509470E-2,4.914309084E-2
3.968500432E0,-8.093999699E-3,4.680009559E-2,5.020809174E-2
3.973551682E0,-2.300400101E-2,5.212509632E-2,5.233809352E-2
3.978602984E0,-3.365400061E-2,5.638509616E-2,5.659809709E-2
3.983654286E0,-3.897900134E-2,5.212509632E-2,6.405308843E-2
3.988710953E0,-4.536899924E-2,4.360509291E-2,6.937809289E-2
3.993762203E0,-4.430400208E-2,3.189009428E-2,7.470308989E-2
3.998813505E0,-4.217400029E-2,2.337009460E-2,8.109309524E-2
4.003864755E0,-3.897900134E-2,1.272009313E-2,8.854809403E-2
4.008916057E0,-2.939400077E-2,4.200093914E-3,9.600309283E-2
4.013967359E0,-1.022399962E-2,-3.254906274E-3,1.045230925E-1
4.019016838E0,1.107600052E-2,-1.124906237E-3,1.151730940E-1
4.024068088E0,3.237599880E-2,4.200093914E-3,1.236930937E-1
4.029119390E0,5.367599800E-2,1.272009313E-2,1.268880963E-1
4.034170640E0,7.284600288E-2,2.017509378E-2,1.290180981E-1
4.039221942E0,8.562599868E-2,3.082509525E-2,1.311480850E-1
4.044273245E0,9.201599658E-2,3.828009591E-2,1.332780868E-1
4.049316005E0,9.308099747E-2,4.893009365E-2,1.364730895E-1
4.054367255E0,8.775600046E-2,5.532009527E-2,1.417980939E-1
4.059418557E0,7.604099810E-2,5.638509616E-2,1.417980939E-1
4.064469807E0,6.006599963E-2,5.319009349E-2,1.417980939E-1
4.069521109E0,3.983100131E-2,4.893009365E-2,1.439280957E-1
4.074572411E0,1.746599935E-2,3.934509307E-2,1.428630948E-1
4.079615849E0,-3.834000090E-3,3.189009428E-2,1.375380903E-1
4.084666995E0,-2.726400085E-2,2.124009468E-2,1.290180981E-1
4.089718140E0,-4.856400192E-2,1.485009398E-2,1.215630919E-1
4.094769286E0,-6.986399740E-2,1.272009313E-2,1.119780913E-1
4.099820432E0,-9.329400212E-2,5.265093409E-3,1.002630889E-1
4.104871578E0,-1.113990024E-1,2.070093527E-3,9.067808837E-2
4.109939755E0,-1.284389943E-1,1.005093683E-3,8.002809435E-2
4.114990901E0,-1.444139928E-1,-3.254906274E-3,7.150809467E-2
4.120042099E0,-1.561289877E-1,-5.990627687E-5,6.405308843E-2
4.125093245E0,-1.689089984E-1,8.460094221E-3,5.659809709E-2
4.130144338E0,-1.774289906E-1,1.272009313E-2,4.914309084E-2
4.135195484E0,-1.838189960E-1,1.804509386E-2,4.807809740E-2
4.140235067E0,-1.891440004E-1,2.656509541E-2,4.594809562E-2
4.145286213E0,-1.934039891E-1,3.189009428E-2,4.488309473E-2
4.150337359E0,-1.955339909E-1,3.615009412E-2,4.594809562E-2
4.155388505E0,-1.912739873E-1,3.828009591E-2,4.488309473E-2
4.160439651E0,-1.838189960E-1,3.295509517E-2,4.594809562E-2
4.165490797E0,-1.763639897E-1,2.124009468E-2,4.488309473E-2
4.170553453E0,-1.614539921E-1,1.059009321E-2,4.062309116E-2
4.175604599E0,-1.433489919E-1,-5.990627687E-5,3.529809415E-2
4.180655745E0,-1.231139973E-1,-4.319906235E-3,2.677809447E-2
4.185706890E0,-1.060739979E-1,-4.319906235E-3,1.612809300E-2
4.190758036E0,-8.264400065E-2,-1.070990600E-2,5.478093866E-3
4.195809182E0,-6.773400307E-2,-2.029490471E-2,-7.301906124E-3
4.200859442E0,-5.601900071E-2,-3.307490423E-2,-2.008190565E-2
4.205910588E0,-4.749900103E-2,-4.372490570E-2,-3.073190711E-2
4.210961786E0,-4.110899940E-2,-4.265990481E-2,-3.392690420E-2
4.216012932E0,-4.004400223E-2,-4.478990659E-2,-3.499190509E-2
4.221064078E0,-4.004400223E-2,-4.904990643E-2,-3.286190331E-2
4.226115172E0,-4.536899924E-2,-4.691990465E-2,-2.860190533E-2
4.231157828E0,-5.282400176E-2,-4.159490392E-2,-2.327690646E-2
4.236208974E0,-6.027900055E-2,-4.159490392E-2,-1.688690670E-2
4.241260120E0,-6.879900396E-2,-3.946490586E-2,-1.156190597E-2
4.246311265E0,-7.731900364E-2,-3.626990691E-2,-9.431906044E-3
4.251362411E0,-8.477400243E-2,-3.520490602E-2,-6.236906163E-3
4.256413505E0,-9.222900122E-2,-3.413990512E-2,-7.301906124E-3
4.261518817E0,-9.968400002E-2,-3.200990707E-2,-1.262690593E-2
4.266569911E0,-1.071389988E-1,-3.307490423E-2,-2.008190565E-2
4.271621057E0,-1.145939976E-1,-3.094490618E-2,-2.753690630E-2
4.276672203E0,-1.231139973E-1,-2.774990536E-2,-3.712190688E-2
4.281723401E0,-1.305689961E-1,-2.561990544E-2,-4.670690745E-2
4.286774495E0,-1.369589865E-1,-2.029490471E-2,-4.883690923E-2
4.291770640E0,-1.401539892E-1,-1.709990576E-2,-5.096690357E-2
4.296821786E0,-1.412189901E-1,-1.496990677E-2,-4.883690923E-2
4.301872932E0,-1.369589865E-1,-8.579906076E-3,-4.564190656E-2
4.306924078E0,-1.316339970E-1,-1.124906237E-3,-3.605690598E-2
4.311975224E0,-1.199190021E-1,7.395093795E-3,-2.860190533E-2
4.317026370E0,-1.071389988E-1,1.165509317E-2,-2.114690654E-2
4.322087151E0,-9.116400033E-2,9.525093250E-3,-1.262690593E-2
4.327138297E0,-7.305900007E-2,3.135093488E-3,-7.301906124E-3
4.332189442E0,-5.282400176E-2,1.005093683E-3,-6.236906163E-3
4.337240588E0,-3.791400045E-2,-5.990627687E-5,-4.106906243E-3
4.342291734E0,-2.406900004E-2,-3.254906274E-3,-9.119062452E-4
4.347342880E0,-1.128899958E-2,-3.254906274E-3,-3.041906282E-3
4.352401838E0,-6.390000344E-4,-5.990627687E-5,2.283093752E-3
4.357452984E0,6.816000212E-3,1.005093683E-3,6.543093827E-3
4.362504130E0,1.320600044E-2,1.005093683E-3,8.673094213E-3
4.367555276E0,1.746599935E-2,-3.254906274E-3,9.738094173E-3
4.372606422E0,1.533600036E-2,-2.189906314E-3,1.293309405E-2
4.377657567E0,1.427100040E-2,-9.644906037E-3,8.673094213E-3
4.382701161E0,1.001100056E-2,-1.922990568E-2,9.738094173E-3
4.387752307E0,4.685999826E-3,-3.094490618E-2,8.673094213E-3
4.392803453E0,-3.834000090E-3,-3.946490586E-2,4.413093906E-3
4.397854599E0,-1.128899958E-2,-4.798490554E-2,6.543093827E-3
4.402905745E0,-2.087400109E-2,-5.011490732E-2,6.543093827E-3
4.407956838E0,-3.152399883E-2,-4.691990465E-2,4.413093906E-3
4.413001213E0,-4.004400223E-2,-4.159490392E-2,5.478093866E-3
4.418052359E0,-4.856400192E-2,-4.159490392E-2,1.218093792E-3
4.423103505E0,-5.495399982E-2,-3.626990691E-2,-1.976906089E-3
4.428154651E0,-5.921399966E-2,-2.561990544E-2,-1.976906089E-3
4.433205797E0,-6.134400144E-2,-1.603490487E-2,-6.236906163E-3
4.438256942E0,-5.708400160E-2,-9.644906037E-3,-9.431906044E-3
4.443311370E0,-5.388899893E-2,-7.514906116E-3,-1.156190597E-2
4.448362515E0,-4.856400192E-2,-1.070990600E-2,-1.262690593E-2
4.453413661E0,-4.430400208E-2,-1.603490487E-2,-1.369190589E-2
4.458464807E0,-3.471900150E-2,-2.348990552E-2,-1.582190581E-2
4.463515953E0,-2.300400101E-2,-2.881490625E-2,-1.262690593E-2
4.468567099E0,-1.767900027E-2,-3.413990512E-2,-9.431906044E-3
4.473617359E0,-1.235399954E-2,-3.839990497E-2,-6.236906163E-3
4.478668505E0,-7.029000204E-3,-4.052990675E-2,-3.041906282E-3
4.483719651E0,-2.768999897E-3,-4.372490570E-2,-4.106906243E-3
4.488770797E0,4.259999841E-4,-4.691990465E-2,-1.976906089E-3
4.493821942E0,2.555999905E-3,-4.904990643E-2,1.218093792E-3
4.498873088E0,5.750999786E-3,-4.478990659E-2,2.283093752E-3
4.503928192E0,7.881000638E-3,-4.478990659E-2,-9.119062452E-4
4.508979338E0,5.750999786E-3,-4.052990675E-2,-3.041906282E-3
4.514030484E0,5.750999786E-3,-3.520490602E-2,-3.041906282E-3
4.519081630E0,1.490999945E-3,-3.094490618E-2,-5.171906203E-3
4.524132776E0,-5.963999778E-3,-2.774990536E-2,-1.976906089E-3
4.529183922E0,-1.341899950E-2,-2.668490633E-2,-9.119062452E-4
4.534240224E0,-2.193900011E-2,-2.774990536E-2,5.478093866E-3
4.539291370E0,-2.939400077E-2,-2.774990536E-2,9.738094173E-3
4.544342515E0,-3.471900150E-2,-2.455490641E-2,1.293309405E-2
4.549393661E0,-3.471900150E-2,-2.348990552E-2,1.506309398E-2
4.554444807E0,-3.471900150E-2,-1.816490479E-2,1.506309398E-2
4.559495953E0,-3.471900150E-2,-1.177490689E-2,1.080309413E-2
4.564542828E0,-3.045899980E-2,-1.177490689E-2,6.543093827E-3
4.569593974E0,-2.513400093E-2,-1.496990677E-2,1.530938316E-4
4.574645120E0,-2.406900004E-2,-1.922990568E-2,-4.106906243E-3
4.579696265E0,-1.980900019E-2,-2.348990552E-2,-6.236906163E-3
4.584747411E0,-1.448399946E-2,-2.881490625E-2,-8.366906084E-3
4.589798557E0,-9.158999659E-3,-3.839990497E-2,-5.171906203E-3
4.594880901E0,-5.963999778E-3,-4.691990465E-2,-1.976906089E-3
4.599932047E0,2.555999905E-3,-5.330990627E-2,2.283093752E-3
4.604983140E0,7.881000638E-3,-5.543990433E-2,6.543093827E-3
4.610034286E0,1.214100048E-2,-5.224490538E-2,5.478093866E-3
4.615085432E0,1.640100032E-2,-4.372490570E-2,7.608093787E-3
4.620136578E0,2.066100016E-2,-3.626990691E-2,4.413093906E-3
4.625163192E0,2.172599919E-2,-2.668490633E-2,-4.106906243E-3
4.630214338E0,1.959599927E-2,-1.709990576E-2,-1.475690585E-2
4.635265484E0,1.214100048E-2,-7.514906116E-3,-2.434190549E-2
4.640316630E0,2.555999905E-3,1.005093683E-3,-3.179690987E-2
4.645367776E0,-5.963999778E-3,1.005093683E-3,-3.925190866E-2
4.650418870E0,-1.661400124E-2,1.005093683E-3,-4.351190478E-2
4.655457203E0,-2.939400077E-2,-5.384906661E-3,-4.564190656E-2
4.660508349E0,-4.430400208E-2,-1.496990677E-2,-4.457690567E-2
4.665559495E0,-5.601900071E-2,-1.922990568E-2,-4.244690388E-2
4.670610640E0,-6.879900396E-2,-2.242490463E-2,-3.925190866E-2
4.675661786E0,-8.051399887E-2,-2.455490641E-2,-2.860190533E-2
4.680712932E0,-8.264400065E-2,-2.668490633E-2,-1.582190581E-2
4.685771109E0,-8.370900154E-2,-2.668490633E-2,-7.301906124E-3
4.690822255E0,-7.944899797E-2,-2.561990544E-2,3.348093713E-3
4.695873401E0,-7.199399918E-2,-1.816490479E-2,9.738094173E-3
4.700924547E0,-6.453900039E-2,-1.070990600E-2,1.080309413E-2
4.705975692E0,-5.814899877E-2,-7.514906116E-3,1.080309413E-2
4.711026838E0,-5.069399998E-2,-3.254906274E-3,7.608093787E-3
4.716081526E0,-4.110899940E-2,-2.189906314E-3,3.348093713E-3
4.721132672E0,-3.152399883E-2,-1.124906237E-3,1.530938316E-4
4.726183817E0,-2.193900011E-2,-2.189906314E-3,-3.041906282E-3
4.731234963E0,-9.158999659E-3,-1.124906237E-3,-6.236906163E-3
4.736286109E0,3.621000098E-3,2.070093527E-3,-1.049690600E-2
4.741337255E0,1.533600036E-2,-2.189906314E-3,-1.688690670E-2
4.746387099E0,2.492100000E-2,-1.177490689E-2,-2.008190565E-2
4.751438297E0,3.557099774E-2,-2.242490463E-2,-2.114690654E-2
4.756489442E0,4.196099937E-2,-3.520490602E-2,-1.901690662E-2
4.761540536E0,4.835100099E-2,-4.159490392E-2,-1.049690600E-2
4.766591682E0,5.793599784E-2,-4.159490392E-2,-6.236906163E-3
4.771642828E0,6.219599769E-2,-3.839990497E-2,1.530938316E-4
4.776700901E0,6.219599769E-2,-3.520490602E-2,5.478093866E-3
4.781752047E0,5.580599979E-2,-3.200990707E-2,1.080309413E-2
4.786803192E0,5.048099905E-2,-2.987990528E-2,1.293309405E-2
4.791854338E0,4.196099937E-2,-2.561990544E-2,1.612809300E-2
4.796905484E0,3.237599880E-2,-2.455490641E-2,1.932309382E-2
4.801956630E0,2.172599919E-2,-2.135990560E-2,1.612809300E-2
4.807003974E0,1.427100040E-2,-1.816490479E-2,1.399809401E-2
4.812055120E0,2.555999905E-3,-2.029490471E-2,1.293309405E-2
4.817106265E0,-4.898999818E-3,-2.242490463E-2,6.543093827E-3
4.822157411E0,-1.341899950E-2,-2.242490463E-2,-3.041906282E-3
4.827208557E0,-1.980900019E-2,-2.348990552E-2,-1.049690600E-2
4.832259651E0,-2.406900004E-2,-2.774990536E-2,-1.901690662E-2
4.837310849E0,-2.832899988E-2,-3.413990512E-2,-2.434190549E-2
4.842361995E0,-2.939400077E-2,-3.733490407E-2,-2.327690646E-2
4.847413140E0,-2.619899996E-2,-3.946490586E-2,-2.327690646E-2
4.852464286E0,-2.406900004E-2,-3.200990707E-2,-1.795190573E-2
4.857515432E0,-1.767900027E-2,-2.029490471E-2,-1.156190597E-2
4.862566578E0,-1.022399962E-2,-8.579906076E-3,-4.106906243E-3
4.867606682E0,-4.898999818E-3,-5.990627687E-5,1.218093792E-3
4.872657828E0,2.555999905E-3,1.272009313E-2,5.478093866E-3
4.877708974E0,1.001100056E-2,2.230509371E-2,7.608093787E-3
4.882760172E0,1.746599935E-2,2.763009444E-2,1.293309405E-2
4.887811265E0,2.492100000E-2,3.189009428E-2,1.719309390E-2
4.892862411E0,3.024599887E-2,3.189009428E-2,2.251809463E-2
4.897923140E0,3.663599864E-2,2.656509541E-2,2.677809447E-2
4.902974286E0,4.196099937E-2,2.017509378E-2,2.997309342E-2
4.908025432E0,4.728600010E-2,1.591509394E-2,3.423309326E-2
4.913076578E0,5.048099905E-2,7.395093795E-3,3.849309683E-2
4.918127724E0,5.154599994E-2,1.005093683E-3,3.849309683E-2
4.923178870E0,4.835100099E-2,-4.319906235E-3,3.636309505E-2
4.928230015E0,4.409100115E-2,-8.579906076E-3,3.103809431E-2
4.933281213E0,3.557099774E-2,-1.283990685E-2,2.464809455E-2
4.938332307E0,2.705099992E-2,-1.496990677E-2,1.719309390E-2
4.943383505E0,1.640100032E-2,-1.603490487E-2,1.612809300E-2
4.948434599E0,1.001100056E-2,-1.709990576E-2,1.399809401E-2
4.953485745E0,-1.704000053E-3,-1.283990685E-2,1.186809409E-2
4.958527932E0,-1.448399946E-2,-1.283990685E-2,1.612809300E-2
4.963579078E0,-2.300400101E-2,-1.603490487E-2,1.612809300E-2
4.968630224E0,-3.365400061E-2,-2.242490463E-2,1.932309382E-2
4.973681370E0,-4.004400223E-2,-2.348990552E-2,2.038809471E-2
4.978732515E0,-4.536899924E-2,-2.242490463E-2,2.145309374E-2
4.983783661E0,-4.217400029E-2,-2.029490471E-2,2.571309358E-2
4.988866526E0,-3.684899956E-2,-1.922990568E-2,2.571309358E-2
4.993917672E0,-3.365400061E-2,-1.922990568E-2,2.784309350E-2
4.998968870E0,-2.619899996E-2,-1.603490487E-2,2.997309342E-2
5.004020015E0,-1.661400124E-2,-1.603490487E-2,3.103809431E-2
5.009071161E0,-9.158999659E-3,-1.283990685E-2,3.210309148E-2
5.014122255E0,-3.834000090E-3,-5.384906661E-3,3.316809237E-2
5.019151734E0,7.881000638E-3,4.200093914E-3,3.423309326E-2
5.024202880E0,1.853100024E-2,8.460094221E-3,2.997309342E-2
5.029254026E0,2.385599911E-2,9.525093250E-3,2.571309358E-2
5.034305172E0,3.024599887E-2,1.165509317E-2,2.038809471E-2
5.039356317E0,3.770099953E-2,1.698009484E-2,1.612809300E-2
5.044407463E0,4.515599832E-2,2.656509541E-2,1.399809401E-2
5.049450640E0,5.154599994E-2,3.508509323E-2,1.612809300E-2
5.054501786E0,5.900099874E-2,4.467009380E-2,1.399809401E-2
5.059552932E0,6.113100052E-2,4.573509470E-2,1.506309398E-2
5.064604078E0,6.219599769E-2,3.721509501E-2,9.738094173E-3
5.069655224E0,6.113100052E-2,2.869509533E-2,1.530938316E-4
5.074706370E0,5.154599994E-2,1.911009476E-2,-7.301906124E-3
5.079765172E0,4.089599848E-2,1.165509317E-2,-1.156190597E-2
5.084816370E0,3.344099969E-2,7.395093795E-3,-1.369190589E-2
5.089867620E0,2.492100000E-2,8.460094221E-3,-1.475690585E-2
5.094918870E0,1.533600036E-2,3.135093488E-3,-1.262690593E-2
5.099970120E0,1.001100056E-2,-3.254906274E-3,-1.049690600E-2
5.105021317E0,4.685999826E-3,-1.390490681E-2,-1.582190581E-2
5.110119703E0,-6.390000344E-4,-2.029490471E-2,-2.114690654E-2
5.115170953E0,-5.963999778E-3,-2.561990544E-2,-2.966690622E-2
5.120222203E0,-9.158999659E-3,-2.348990552E-2,-3.818690777E-2
5.125273453E0,-1.128899958E-2,-1.922990568E-2,-4.244690388E-2
5.130324703E0,-1.554899942E-2,-1.070990600E-2,-4.457690567E-2
5.135375953E0,-2.087400109E-2,-2.189906314E-3,-4.351190478E-2
5.140371526E0,-2.619899996E-2,6.330093369E-3,-3.392690420E-2
5.145422724E0,-2.832899988E-2,1.059009321E-2,-2.327690646E-2
5.150473974E0,-3.258899972E-2,1.378509402E-2,-1.156190597E-2
5.155525224E0,-3.684899956E-2,1.804509386E-2,-1.976906089E-3
5.160576474E0,-3.684899956E-2,2.337009460E-2,6.543093827E-3
5.165627724E0,-3.471900150E-2,2.337009460E-2,9.738094173E-3
5.170677099E0,-3.471900150E-2,2.230509371E-2,1.186809409E-2
5.175728349E0,-3.045899980E-2,1.911009476E-2,1.293309405E-2
5.180779547E0,-2.726400085E-2,1.378509402E-2,1.506309398E-2
5.185830797E0,-2.300400101E-2,5.265093409E-3,1.612809300E-2
5.190882047E0,-1.448399946E-2,-3.254906274E-3,1.612809300E-2
5.195933297E0,-3.834000090E-3,-8.579906076E-3,1.719309390E-2
5.200997151E0,7.881000638E-3,-1.390490681E-2,1.612809300E-2
5.206048349E0,1.427100040E-2,-1.390490681E-2,1.080309413E-2
5.211099599E0,2.385599911E-2,-1.603490487E-2,5.478093866E-3
5.216150849E0,3.237599880E-2,-1.496990677E-2,-1.976906089E-3
5.221202099E0,3.557099774E-2,-1.603490487E-2,-5.171906203E-3
5.226253297E0,4.089599848E-2,-1.922990568E-2,-6.236906163E-3
5.231300120E0,4.196099937E-2,-1.603490487E-2,-1.156190597E-2
5.236351317E0,3.770099953E-2,-1.496990677E-2,-1.156190597E-2
5.241402567E0,2.811599895E-2,-1.816490479E-2,-9.431906044E-3
5.246453817E0,2.066100016E-2,-2.135990560E-2,-4.106906243E-3
5.251505067E0,1.107600052E-2,-2.242490463E-2,1.530938316E-4
5.256556265E0,-1.704000053E-3,-2.242490463E-2,2.283093752E-3
5.261610067E0,-1.661400124E-2,-2.348990552E-2,2.283093752E-3
5.266661265E0,-2.832899988E-2,-2.348990552E-2,4.413093906E-3
5.271712515E0,-3.791400045E-2,-2.561990544E-2,3.348093713E-3
5.276763765E0,-4.749900103E-2,-2.774990536E-2,1.530938316E-4
5.281815015E0,-5.388899893E-2,-2.668490633E-2,1.218093792E-3
5.286866213E0,-5.921399966E-2,-2.135990560E-2,5.478093866E-3
5.291918297E0,-5.708400160E-2,-1.496990677E-2,7.608093787E-3
5.296969599E0,-5.069399998E-2,-4.319906235E-3,1.186809409E-2
5.302020797E0,-3.897900134E-2,6.330093369E-3,1.932309382E-2
5.307072047E0,-2.619899996E-2,1.165509317E-2,2.145309374E-2
5.312123297E0,-1.128899958E-2,1.698009484E-2,2.251809463E-2
5.317174547E0,2.555999905E-3,2.550009452E-2,2.358309366E-2
5.322229338E0,1.959599927E-2,2.869509533E-2,2.145309374E-2
5.327280536E0,3.237599880E-2,2.976009436E-2,1.932309382E-2
5.332331786E0,4.515599832E-2,3.189009428E-2,1.612809300E-2
5.337383036E0,5.580599979E-2,2.763009444E-2,1.399809401E-2
5.342434286E0,6.113100052E-2,1.911009476E-2,1.293309405E-2
5.347485536E0,6.219599769E-2,5.265093409E-3,9.738094173E-3
5.352519911E0,5.900099874E-2,-5.384906661E-3,4.413093906E-3
5.357571161E0,5.367599800E-2,-1.070990600E-2,-9.119062452E-4
5.362622359E0,4.302600026E-2,-1.070990600E-2,-8.366906084E-3
5.367673609E0,3.131099790E-2,-9.644906037E-3,-1.582190581E-2
5.372724859E0,2.066100016E-2,-5.384906661E-3,-2.008190565E-2
5.377776109E0,8.946000598E-3,-2.189906314E-3,-2.327690646E-2
5.382831474E0,-7.029000204E-3,-1.124906237E-3,-2.753690630E-2
5.387882724E0,-2.087400109E-2,-3.254906274E-3,-3.073190711E-2
5.392933974E0,-3.258899972E-2,1.005093683E-3,-3.499190509E-2
5.397985224E0,-4.323900118E-2,5.265093409E-3,-3.286190331E-2
5.403036422E0,-5.388899893E-2,8.460094221E-3,-3.179690987E-2
5.408087672E0,-5.921399966E-2,1.059009321E-2,-2.540690638E-2
5.413145484E0,-6.134400144E-2,1.698009484E-2,-1.688690670E-2
5.418196734E0,-6.134400144E-2,1.911009476E-2,-1.049690600E-2
5.423247984E0,-5.601900071E-2,1.911009476E-2,-6.236906163E-3
5.428299234E0,-5.069399998E-2,1.698009484E-2,-3.041906282E-3
5.433350432E0,-4.430400208E-2,1.165509317E-2,-9.119062452E-4
5.438401682E0,-3.684899956E-2,8.460094221E-3,1.530938316E-4
5.443422411E0,-2.513400093E-2,4.200093914E-3,-3.041906282E-3
5.448473661E0,-1.554899942E-2,-3.254906274E-3,1.530938316E-4
5.453524859E0,-7.029000204E-3,-5.384906661E-3,4.413093906E-3
5.458576161E0,4.685999826E-3,-1.177490689E-2,7.608093787E-3
5.463627359E0,1.214100048E-2,-1.816490479E-2,1.186809409E-2
5.468678609E0,1.853100024E-2,-2.242490463E-2,1.399809401E-2
5.473744807E0,2.279100008E-2,-2.455490641E-2,1.506309398E-2
5.478796057E0,2.492100000E-2,-2.348990552E-2,1.719309390E-2
5.483847307E0,2.811599895E-2,-1.603490487E-2,1.825809292E-2
5.488898557E0,2.492100000E-2,-6.449906621E-3,1.932309382E-2
5.493949755E0,2.172599919E-2,4.200093914E-3,2.145309374E-2
5.499001005E0,1.853100024E-2,9.525093250E-3,2.251809463E-2
5.504062932E0,1.640100032E-2,1.591509394E-2,2.358309366E-2
5.509114182E0,8.946000598E-3,1.698009484E-2,2.251809463E-2
5.514165432E0,6.816000212E-3,1.591509394E-2,2.358309366E-2
5.519216682E0,4.685999826E-3,1.378509402E-2,1.825809292E-2
5.524267880E0,1.490999945E-3,1.165509317E-2,1.293309405E-2
5.529319130E0,-1.704000053E-3,6.330093369E-3,6.543093827E-3
5.534379130E0,-2.768999897E-3,-5.990627687E-5,1.218093792E-3
5.539430328E0,-1.704000053E-3,-5.384906661E-3,-6.236906163E-3
5.544481578E0,-1.704000053E-3,-9.644906037E-3,-1.475690585E-2
5.549532828E0,-3.834000090E-3,-1.603490487E-2,-2.434190549E-2
5.554584078E0,-4.898999818E-3,-1.709990576E-2,-2.860190533E-2
5.559635276E0,-9.158999659E-3,-1.816490479E-2,-3.499190509E-2
5.564675224E0,-1.022399962E-2,-1.922990568E-2,-3.712190688E-2
5.569726474E0,-1.235399954E-2,-1.709990576E-2,-3.818690777E-2
5.574777724E0,-1.235399954E-2,-1.390490681E-2,-3.392690420E-2
5.579828974E0,-1.341899950E-2,-8.579906076E-3,-2.860190533E-2
5.584880172E0,-1.128899958E-2,-3.254906274E-3,-2.114690654E-2
5.589931422E0,-8.093999699E-3,1.005093683E-3,-9.431906044E-3
5.594983817E0,-4.898999818E-3,4.200093914E-3,-3.041906282E-3
5.600035067E0,-6.390000344E-4,9.525093250E-3,2.283093752E-3
5.605086317E0,1.490999945E-3,1.378509402E-2,4.413093906E-3
5.610137567E0,6.816000212E-3,1.485009398E-2,5.478093866E-3
5.615188765E0,7.881000638E-3,1.698009484E-2,7.608093787E-3
5.620240015E0,1.107600052E-2,1.804509386E-2,5.478093866E-3
5.625300172E0,1.746599935E-2,1.911009476E-2,4.413093906E-3
5.630351370E0,2.385599911E-2,1.698009484E-2,2.283093752E-3
5.635402620E0,2.279100008E-2,2.017509378E-2,-1.976906089E-3
5.640453870E0,2.172599919E-2,1.591509394E-2,-7.301906124E-3
5.645505120E0,1.853100024E-2,1.165509317E-2,-1.369190589E-2
5.650556317E0,1.320600044E-2,6.330093369E-3,-2.114690654E-2
5.655597984E0,1.001100056E-2,2.070093527E-3,-2.008190565E-2
5.660649234E0,5.750999786E-3,-5.384906661E-3,-2.114690654E-2
5.665700432E0,-2.768999897E-3,-8.579906076E-3,-1.901690662E-2
5.670751682E0,-1.341899950E-2,-1.390490681E-2,-1.369190589E-2
5.675802932E0,-1.661400124E-2,-1.283990685E-2,-9.431906044E-3
5.680854182E0,-2.406900004E-2,-7.514906116E-3,-6.236906163E-3
5.685908088E0,-2.832899988E-2,-5.384906661E-3,-1.976906089E-3
5.690959338E0,-3.045899980E-2,-3.254906274E-3,4.413093906E-3
5.696010536E0,-3.258899972E-2,4.200093914E-3,7.608093787E-3
5.701061786E0,-3.152399883E-2,1.272009313E-2,8.673094213E-3
5.706113036E0,-3.045899980E-2,1.804509386E-2,9.738094173E-3
5.711164234E0,-2.939400077E-2,2.230509371E-2,8.673094213E-3
5.716204547E0,-2.726400085E-2,2.869509533E-2,5.478093866E-3
5.721255745E0,-2.726400085E-2,2.763009444E-2,5.478093866E-3
5.726306995E0,-2.513400093E-2,2.656509541E-2,4.413093906E-3
5.731358245E0,-2.619899996E-2,2.869509533E-2,5.478093866E-3
5.736409495E0,-2.619899996E-2,2.976009436E-2,7.608093787E-3
5.741460745E0,-2.513400093E-2,3.615009412E-2,8.673094213E-3
5.746516422E0,-2.300400101E-2,3.934509307E-2,1.293309405E-2
5.751567620E0,-2.087400109E-2,3.402009606E-2,1.932309382E-2
5.756618870E0,-1.874400117E-2,2.976009436E-2,2.677809447E-2
5.761670120E0,-1.874400117E-2,2.656509541E-2,3.316809237E-2
5.766721370E0,-1.448399946E-2,2.337009460E-2,4.062309116E-2
5.771772567E0,-1.128899958E-2,2.017509378E-2,4.381809384E-2
5.776826370E0,-7.029000204E-3,1.698009484E-2,4.275309294E-2
5.781877567E0,-4.898999818E-3,1.485009398E-2,4.062309116E-2
5.786928817E0,-6.390000344E-4,1.485009398E-2,3.742809594E-2
5.791980067E0,1.490999945E-3,1.591509394E-2,3.423309326E-2
5.797031317E0,4.685999826E-3,1.485009398E-2,3.103809431E-2
5.802082515E0,4.685999826E-3,1.378509402E-2,2.677809447E-2
5.807129130E0,5.750999786E-3,8.460094221E-3,2.251809463E-2
5.812180328E0,3.621000098E-3,5.265093409E-3,1.719309390E-2
5.817231578E0,2.555999905E-3,5.265093409E-3,1.186809409E-2
5.822282828E0,2.555999905E-3,5.265093409E-3,8.673094213E-3
5.827334078E0,1.490999945E-3,7.395093795E-3,9.738094173E-3
5.832385276E0,-1.704000053E-3,8.460094221E-3,8.673094213E-3
5.837442203E0,1.490999945E-3,9.525093250E-3,1.080309413E-2
5.842493453E0,1.490999945E-3,5.265093409E-3,1.186809409E-2
5.847544651E0,-3.834000090E-3,-5.990627687E-5,1.612809300E-2
5.852595901E0,-7.029000204E-3,-5.384906661E-3,1.932309382E-2
5.857647151E0,-1.022399962E-2,-1.070990600E-2,2.145309374E-2
5.862698349E0,-1.022399962E-2,-1.390490681E-2,2.464809455E-2
5.867758297E0,-1.235399954E-2,-1.283990685E-2,2.251809463E-2
5.872809547E0,-1.767900027E-2,-1.070990600E-2,1.825809292E-2
5.877860745E0,-1.767900027E-2,-1.603490487E-2,1.506309398E-2
5.882911995E0,-2.087400109E-2,-1.816490479E-2,1.186809409E-2
5.887963245E0,-2.513400093E-2,-1.709990576E-2,5.478093866E-3
5.893014495E0,-2.619899996E-2,-2.135990560E-2,2.283093752E-3
5.898043036E0,-2.726400085E-2,-2.135990560E-2,-9.119062452E-4
5.903094234E0,-2.513400093E-2,-2.029490471E-2,-6.236906163E-3
5.908145484E0,-2.193900011E-2,-2.242490463E-2,-1.156190597E-2
5.913196734E0,-2.087400109E-2,-2.348990552E-2,-1.156190597E-2
5.918247984E0,-1.554899942E-2,-2.348990552E-2,-1.262690593E-2
5.923299234E0,-9.158999659E-3,-2.348990552E-2,-1.156190597E-2
5.928360067E0,-5.963999778E-3,-2.348990552E-2,-8.366906084E-3
5.933411265E0,1.490999945E-3,-2.135990560E-2,-6.236906163E-3
5.938462515E0,1.001100056E-2,-1.496990677E-2,-3.041906282E-3
5.943513765E0,1.959599927E-2,-5.384906661E-3,1.218093792E-3
5.948565015E0,2.705099992E-2,4.200093914E-3,3.348093713E-3
5.953616213E0,3.450600058E-2,1.378509402E-2,7.608093787E-3
5.958687515E0,3.770099953E-2,2.337009460E-2,1.080309413E-2
5.963738765E0,4.089599848E-2,2.656509541E-2,1.399809401E-2
5.968789963E0,4.196099937E-2,2.656509541E-2,1.399809401E-2
5.973841213E0,3.983100131E-2,2.656509541E-2,1.612809300E-2
5.978892463E0,3.344099969E-2,2.976009436E-2,1.719309390E-2
5.983943713E0,3.024599887E-2,3.082509525E-2,1.932309382E-2
5.988986057E0,3.131099790E-2,3.295509517E-2,2.145309374E-2
5.994037255E0,2.705099992E-2,3.934509307E-2,1.825809292E-2
5.999088505E0,2.705099992E-2,3.934509307E-2,1.719309390E-2
6.004139755E0,2.492100000E-2,4.254009575E-2,1.080309413E-2
6.009191005E0,2.492100000E-2,4.254009575E-2,4.413093906E-3
6.014242203E0,2.279100008E-2,3.934509307E-2,-1.976906089E-3
6.019291474E0,2.279100008E-2,3.189009428E-2,-5.171906203E-3
6.024342672E0,2.598599903E-2,2.550009452E-2,-9.431906044E-3
6.029393922E0,2.705099992E-2,1.804509386E-2,-1.156190597E-2
6.034445172E0,2.492100000E-2,8.460094221E-3,-1.156190597E-2
6.039496422E0,2.918099985E-2,-5.990627687E-5,-8.366906084E-3
6.044547672E0,3.024599887E-2,-2.189906314E-3,-5.171906203E-3
6.049608297E0,3.237599880E-2,-3.254906274E-3,1.530938316E-4
6.054659495E0,3.237599880E-2,-1.124906237E-3,1.218093792E-3
6.059710745E0,3.663599864E-2,-2.189906314E-3,3.348093713E-3
6.064761995E0,3.557099774E-2,-5.384906661E-3,5.478093866E-3
6.069813245E0,3.131099790E-2,-5.384906661E-3,6.543093827E-3
6.074864495E0,3.024599887E-2,-1.124906237E-3,5.478093866E-3
6.079906630E0,2.279100008E-2,2.070093527E-3,4.413093906E-3
6.084957828E0,1.427100040E-2,3.135093488E-3,5.478093866E-3
6.090009078E0,3.621000098E-3,-5.990627687E-5,4.413093906E-3
6.095060276E0,-7.029000204E-3,-7.514906116E-3,5.478093866E-3
6.100111526E0,-1.980900019E-2,-1.496990677E-2,4.413093906E-3
6.105162724E0,-2.939400077E-2,-2.348990552E-2,6.543093827E-3
6.110210380E0,-3.365400061E-2,-3.520490602E-2,9.738094173E-3
6.115261578E0,-3.897900134E-2,-4.052990675E-2,1.612809300E-2
6.120312828E0,-4.004400223E-2,-3.839990497E-2,1.825809292E-2
6.125364026E0,-3.684899956E-2,-3.520490602E-2,2.251809463E-2
6.130415276E0,-3.365400061E-2,-2.881490625E-2,2.677809447E-2
6.135466474E0,-2.726400085E-2,-2.455490641E-2,2.784309350E-2
6.140512567E0,-2.193900011E-2,-1.496990677E-2,2.571309358E-2
6.145563765E0,-1.661400124E-2,-6.449906621E-3,2.038809471E-2
6.150615015E0,-1.128899958E-2,2.070093527E-3,1.612809300E-2
6.155666213E0,-9.158999659E-3,1.059009321E-2,1.186809409E-2
6.160717463E0,-7.029000204E-3,1.378509402E-2,9.738094173E-3
6.165768661E0,-5.963999778E-3,1.272009313E-2,5.478093866E-3
6.170825797E0,-6.390000344E-4,1.059009321E-2,1.218093792E-3
6.175876995E0,-6.390000344E-4,6.330093369E-3,-4.106906243E-3
6.180928245E0,-6.390000344E-4,1.005093683E-3,-6.236906163E-3
6.185979442E0,3.621000098E-3,-6.449906621E-3,-1.262690593E-2
6.191030640E0,3.621000098E-3,-7.514906116E-3,-2.221190557E-2
6.196081890E0,2.555999905E-3,-8.579906076E-3,-2.647190541E-2
6.201125328E0,3.621000098E-3,-8.579906076E-3,-3.179690987E-2
6.206176526E0,-6.390000344E-4,-6.449906621E-3,-3.605690598E-2
6.211227776E0,-5.963999778E-3,-7.514906116E-3,-3.605690598E-2
6.216278974E0,-1.128899958E-2,-9.644906037E-3,-3.286190331E-2
6.221330224E0,-1.767900027E-2,-7.514906116E-3,-2.753690630E-2
6.226381422E0,-2.193900011E-2,-2.189906314E-3,-2.114690654E-2
6.231429755E0,-2.939400077E-2,8.460094221E-3,-1.475690585E-2
6.236480953E0,-3.045899980E-2,2.230509371E-2,-9.431906044E-3
6.241532203E0,-3.152399883E-2,3.189009428E-2,-5.171906203E-3
6.246583401E0,-3.471900150E-2,4.041009396E-2,-1.976906089E-3
6.251634651E0,-3.365400061E-2,4.360509291E-2,2.283093752E-3
6.256685849E0,-3.045899980E-2,4.680009559E-2,7.608093787E-3
6.261798870E0,-2.619899996E-2,4.999509454E-2,1.186809409E-2
6.266850120E0,-2.087400109E-2,4.254009575E-2,1.506309398E-2
6.271901370E0,-1.448399946E-2,3.402009606E-2,1.932309382E-2
6.276952567E0,-1.022399962E-2,2.443509363E-2,2.145309374E-2
6.282003817E0,-7.029000204E-3,1.698009484E-2,2.358309366E-2
6.287055015E0,-4.898999818E-3,6.330093369E-3,2.251809463E-2
6.292053870E0,-5.963999778E-3,-4.319906235E-3,1.932309382E-2
6.297105067E0,-7.029000204E-3,-1.496990677E-2,1.506309398E-2
6.302156317E0,-9.158999659E-3,-1.922990568E-2,1.186809409E-2
6.307207515E0,-1.022399962E-2,-1.709990576E-2,9.738094173E-3
6.312258765E0,-1.128899958E-2,-1.496990677E-2,8.673094213E-3
6.317309963E0,-1.341899950E-2,-9.644906037E-3,9.738094173E-3
6.322363349E0,-1.235399954E-2,-5.990627687E-5,1.080309413E-2
6.327414547E0,-9.158999659E-3,9.525093250E-3,1.399809401E-2
6.332465797E0,-1.022399962E-2,2.230509371E-2,2.038809471E-2
6.337516995E0,-1.022399962E-2,3.189009428E-2,2.571309358E-2
6.342568245E0,-8.093999699E-3,4.360509291E-2,3.103809431E-2
6.347619442E0,-7.029000204E-3,5.106009543E-2,3.210309148E-2
6.352673765E0,-1.022399962E-2,5.212509632E-2,3.636309505E-2
6.357724963E0,-1.235399954E-2,5.106009543E-2,3.955809027E-2
6.362776213E0,-1.235399954E-2,4.254009575E-2,4.062309116E-2
6.367827411E0,-1.341899950E-2,2.976009436E-2,3.636309505E-2
6.372878661E0,-1.341899950E-2,1.804509386E-2,3.742809594E-2
6.377929859E0,-1.235399954E-2,4.200093914E-3,3.210309148E-2
6.382961265E0,-1.235399954E-2,-9.644906037E-3,2.464809455E-2
6.388012463E0,-1.235399954E-2,-1.816490479E-2,1.399809401E-2
6.393063713E0,-1.235399954E-2,-2.774990536E-2,3.348093713E-3
6.398114911E0,-8.093999699E-3,-3.839990497E-2,-5.171906203E-3
6.403166109E0,-7.029000204E-3,-4.052990675E-2,-1.262690593E-2
6.408217359E0,-1.022399962E-2,-4.159490392E-2,-1.901690662E-2
6.413255953E0,-1.128899958E-2,-4.052990675E-2,-2.008190565E-2
6.418307151E0,-1.235399954E-2,-3.626990691E-2,-1.901690662E-2
6.423358401E0,-1.554899942E-2,-3.094490618E-2,-1.688690670E-2
6.428409599E0,-1.661400124E-2,-1.603490487E-2,-1.369190589E-2
6.433460849E0,-1.980900019E-2,-3.254906274E-3,-6.236906163E-3
6.438512047E0,-2.300400101E-2,9.525093250E-3,1.530938316E-4
6.443597620E0,-2.513400093E-2,2.124009468E-2,5.478093866E-3
6.448648870E0,-2.619899996E-2,2.656509541E-2,1.293309405E-2
6.453700120E0,-2.726400085E-2,2.976009436E-2,2.145309374E-2
6.458751317E0,-2.619899996E-2,3.295509517E-2,2.571309358E-2
6.463802515E0,-2.513400093E-2,3.295509517E-2,3.103809431E-2
6.468853765E0,-2.300400101E-2,3.402009606E-2,3.423309326E-2
6.473896370E0,-1.980900019E-2,2.869509533E-2,3.103809431E-2
6.478947620E0,-1.341899950E-2,2.443509363E-2,2.997309342E-2
6.483998817E0,-7.029000204E-3,1.591509394E-2,2.890809439E-2
6.489050067E0,1.490999945E-3,1.378509402E-2,2.571309358E-2
6.494101265E0,1.001100056E-2,1.059009321E-2,2.251809463E-2
6.499152463E0,1.959599927E-2,1.165509317E-2,1.719309390E-2
6.504212567E0,2.918099985E-2,1.378509402E-2,1.825809292E-2
6.509263765E0,3.983100131E-2,1.272009313E-2,1.612809300E-2
6.514315015E0,4.515599832E-2,1.272009313E-2,1.293309405E-2
6.519366213E0,4.941599816E-2,1.165509317E-2,1.293309405E-2
6.524417463E0,5.048099905E-2,1.272009313E-2,9.738094173E-3
6.529468661E0,5.367599800E-2,8.460094221E-3,8.673094213E-3
6.534516630E0,4.515599832E-2,4.200093914E-3,8.673094213E-3
6.539567828E0,3.557099774E-2,-1.124906237E-3,1.186809409E-2
6.544619078E0,2.385599911E-2,-5.384906661E-3,1.186809409E-2
6.549670328E0,8.946000598E-3,-7.514906116E-3,1.186809409E-2
6.554721526E0,-8.093999699E-3,-1.177490689E-2,1.612809300E-2
6.559772724E0,-2.406900004E-2,-1.709990576E-2,1.506309398E-2
6.564807828E0,-3.897900134E-2,-1.603490487E-2,1.293309405E-2
6.569859078E0,-5.495399982E-2,-9.644906037E-3,9.738094173E-3
6.574910276E0,-6.879900396E-2,-3.254906274E-3,1.186809409E-2
6.579961526E0,-7.518900186E-2,3.135093488E-3,8.673094213E-3
6.585012724E0,-7.838399708E-2,1.059009321E-2,8.673094213E-3
6.590063974E0,-7.944899797E-2,1.911009476E-2,9.738094173E-3
6.595111474E0,-7.731900364E-2,2.124009468E-2,1.293309405E-2
6.600162672E0,-6.879900396E-2,1.911009476E-2,1.399809401E-2
6.605213922E0,-6.027900055E-2,1.698009484E-2,1.293309405E-2
6.610265120E0,-4.643400013E-2,1.804509386E-2,1.825809292E-2
6.615316370E0,-3.152399883E-2,1.378509402E-2,2.038809471E-2
6.620367567E0,-1.341899950E-2,1.165509317E-2,1.825809292E-2
6.625433765E0,3.621000098E-3,1.165509317E-2,2.038809471E-2
6.630485015E0,2.172599919E-2,2.070093527E-3,2.358309366E-2
6.635536265E0,3.770099953E-2,-1.124906237E-3,2.784309350E-2
6.640587463E0,5.154599994E-2,-2.189906314E-3,2.997309342E-2
6.645638713E0,6.006599963E-2,-6.449906621E-3,2.997309342E-2
6.650689911E0,6.539099663E-2,-5.384906661E-3,2.997309342E-2
6.655738245E0,6.858599931E-2,-3.254906274E-3,2.464809455E-2
6.660789442E0,6.219599769E-2,3.135093488E-3,1.932309382E-2
6.665840692E0,5.580599979E-2,7.395093795E-3,1.612809300E-2
6.670891890E0,4.515599832E-2,1.165509317E-2,1.080309413E-2
6.675943140E0,2.918099985E-2,1.591509394E-2,6.543093827E-3
6.680994338E0,1.214100048E-2,1.378509402E-2,4.413093906E-3
6.686045953E0,-8.093999699E-3,1.272009313E-2,1.218093792E-3
6.691097151E0,-2.726400085E-2,5.265093409E-3,-3.041906282E-3
6.696148401E0,-4.323900118E-2,-1.124906237E-3,-5.171906203E-3
6.701199599E0,-5.921399966E-2,-1.070990600E-2,-5.171906203E-3
6.706250849E0,-7.092899829E-2,-1.709990576E-2,-3.041906282E-3
6.711302047E0,-7.838399708E-2,-2.029490471E-2,-9.119062452E-4
6.716357359E0,-8.157899976E-2,-2.348990552E-2,-1.976906089E-3
6.721408557E0,-8.264400065E-2,-1.816490479E-2,-4.106906243E-3
6.726459807E0,-8.157899976E-2,-1.390490681E-2,-5.171906203E-3
6.731511005E0,-7.625400275E-2,-9.644906037E-3,-8.366906084E-3
6.736562203E0,-6.453900039E-2,-3.254906274E-3,-7.301906124E-3
6.741613453E0,-5.814899877E-2,5.265093409E-3,-9.431906044E-3
6.746647776E0,-4.749900103E-2,1.059009321E-2,-1.049690600E-2
6.751698974E0,-3.578399867E-2,1.804509386E-2,-8.366906084E-3
6.756750224E0,-2.513400093E-2,2.550009452E-2,-1.049690600E-2
6.761801422E0,-1.554899942E-2,4.041009396E-2,-8.366906084E-3
6.766852672E0,-8.093999699E-3,5.106009543E-2,-3.041906282E-3
6.771903870E0,-1.704000053E-3,6.171009317E-2,-6.236906163E-3
6.776954026E0,1.107600052E-2,6.490509212E-2,-1.262690593E-2
6.782005224E0,2.066100016E-2,7.023008913E-2,-1.049690600E-2
6.787056474E0,2.279100008E-2,7.342509180E-2,-7.301906124E-3
6.792107724E0,2.279100008E-2,7.768508792E-2,-3.041906282E-3
6.797158922E0,2.279100008E-2,7.555509359E-2,5.478093866E-3
6.802210172E0,1.959599927E-2,7.875008881E-2,8.673094213E-3
6.807357932E0,1.533600036E-2,8.194509149E-2,1.399809401E-2
6.812409130E0,8.946000598E-3,7.662009448E-2,9.738094173E-3
6.817460380E0,2.555999905E-3,6.810008734E-2,5.478093866E-3
6.822511578E0,-5.963999778E-3,5.958009511E-2,1.530938316E-4
6.827562828E0,-1.235399954E-2,5.212509632E-2,-5.171906203E-3
6.832614026E0,-1.767900027E-2,4.573509470E-2,-9.431906044E-3
6.837576578E0,-2.087400109E-2,4.041009396E-2,-1.475690585E-2
6.842627776E0,-2.087400109E-2,3.615009412E-2,-1.582190581E-2
6.847679026E0,-2.300400101E-2,3.189009428E-2,-1.901690662E-2
6.852730224E0,-2.300400101E-2,3.189009428E-2,-1.688690670E-2
6.857781474E0,-2.300400101E-2,3.402009606E-2,-1.795190573E-2
6.862832672E0,-2.193900011E-2,3.934509307E-2,-2.008190565E-2
6.867883192E0,-2.193900011E-2,4.254009575E-2,-1.901690662E-2
6.872934390E0,-2.193900011E-2,4.147509485E-2,-1.901690662E-2
6.877985640E0,-1.980900019E-2,3.828009591E-2,-1.475690585E-2
6.883036838E0,-1.767900027E-2,4.147509485E-2,-1.156190597E-2
6.888088088E0,-1.554899942E-2,4.254009575E-2,-8.366906084E-3
6.893139286E0,-1.448399946E-2,4.680009559E-2,-6.236906163E-3
6.898191057E0,-1.554899942E-2,4.893009365E-2,-7.301906124E-3
6.903242255E0,-1.554899942E-2,4.680009559E-2,-1.049690600E-2
6.908293505E0,-1.448399946E-2,4.573509470E-2,-1.049690600E-2
6.913344703E0,-1.448399946E-2,4.999509454E-2,-1.156190597E-2
6.918395953E0,-1.554899942E-2,5.212509632E-2,-1.369190589E-2
6.923447151E0,-1.661400124E-2,4.999509454E-2,-1.475690585E-2
6.928532567E0,-1.554899942E-2,4.467009380E-2,-1.688690670E-2
6.933583765E0,-1.448399946E-2,3.615009412E-2,-2.008190565E-2
6.938635015E0,-1.767900027E-2,2.337009460E-2,-1.795190573E-2
6.943686213E0,-2.193900011E-2,9.525093250E-3,-1.688690670E-2
6.948737463E0,-2.619899996E-2,-3.254906274E-3,-1.582190581E-2
6.953788661E0,-2.939400077E-2,-8.579906076E-3,-1.688690670E-2
6.958804651E0,-3.365400061E-2,-8.579906076E-3,-1.262690593E-2
6.963855849E0,-3.471900150E-2,-8.579906076E-3,-1.049690600E-2
6.968907099E0,-3.471900150E-2,-1.070990600E-2,-8.366906084E-3
6.973958297E0,-3.684899956E-2,-6.449906621E-3,-7.301906124E-3
6.979009547E0,-3.791400045E-2,-7.514906116E-3,1.530938316E-4
6.984060745E0,-4.110899940E-2,-7.514906116E-3,8.673094213E-3
6.989123817E0,-4.217400029E-2,-4.319906235E-3,1.719309390E-2
6.994175015E0,-4.004400223E-2,1.005093683E-3,2.677809447E-2
6.999226265E0,-3.791400045E-2,4.200093914E-3,3.636309505E-2
7.004277463E0,-3.578399867E-2,1.272009313E-2,4.594809562E-2
7.009328713E0,-3.471900150E-2,2.230509371E-2,5.340309441E-2
7.014379911E0,-3.045899980E-2,3.082509525E-2,5.872809142E-2
7.019430432E0,-2.832899988E-2,3.721509501E-2,5.979309231E-2
7.024481630E0,-2.832899988E-2,3.934509307E-2,5.659809709E-2
7.029532880E0,-2.619899996E-2,3.828009591E-2,4.914309084E-2
7.034584078E0,-2.726400085E-2,3.615009412E-2,4.381809384E-2
7.039635328E0,-2.832899988E-2,3.082509525E-2,3.636309505E-2
7.044686526E0,-3.045899980E-2,2.443509363E-2,2.677809447E-2
7.049728817E0,-3.258899972E-2,1.911009476E-2,1.612809300E-2
7.054780015E0,-3.791400045E-2,9.525093250E-3,9.738094173E-3
7.059831265E0,-4.004400223E-2,4.200093914E-3,1.080309413E-2
7.064882463E0,-4.430400208E-2,-5.990627687E-5,1.080309413E-2
7.069933713E0,-4.430400208E-2,-2.189906314E-3,1.719309390E-2
7.074984911E0,-4.110899940E-2,4.200093914E-3,2.571309358E-2
7.080040692E0,-3.791400045E-2,9.525093250E-3,3.529809415E-2
7.085091890E0,-3.152399883E-2,8.460094221E-3,4.275309294E-2
7.090143088E0,-2.726400085E-2,1.485009398E-2,4.807809740E-2
7.095194286E0,-2.087400109E-2,1.911009476E-2,4.807809740E-2
7.100245484E0,-1.554899942E-2,2.656509541E-2,4.914309084E-2
7.105296630E0,-1.554899942E-2,3.189009428E-2,4.807809740E-2
7.110339651E0,-1.448399946E-2,3.295509517E-2,4.488309473E-2
7.115390797E0,-1.767900027E-2,3.189009428E-2,4.701309651E-2
7.120442047E0,-2.193900011E-2,2.656509541E-2,4.594809562E-2
7.125493192E0,-2.406900004E-2,2.443509363E-2,4.488309473E-2
7.130544390E0,-2.726400085E-2,2.017509378E-2,4.381809384E-2
7.135595588E0,-3.045899980E-2,1.911009476E-2,4.062309116E-2
7.140663609E0,-3.365400061E-2,1.804509386E-2,3.423309326E-2
7.145714807E0,-3.791400045E-2,1.698009484E-2,3.210309148E-2
7.150766005E0,-4.110899940E-2,1.804509386E-2,2.997309342E-2
7.155817203E0,-4.643400013E-2,2.443509363E-2,3.103809431E-2
7.160868401E0,-5.069399998E-2,2.869509533E-2,3.210309148E-2
7.165919599E0,-5.601900071E-2,3.402009606E-2,3.742809594E-2
7.170964807E0,-6.347399950E-2,3.828009591E-2,4.488309473E-2
7.176016005E0,-6.773400307E-2,4.360509291E-2,5.233809352E-2
7.181067203E0,-7.412400097E-2,4.680009559E-2,5.766309053E-2
7.186118401E0,-7.944899797E-2,4.893009365E-2,6.298809499E-2
7.191169599E0,-8.477400243E-2,5.212509632E-2,6.298809499E-2
7.196220797E0,-9.116400033E-2,5.532009527E-2,6.831309199E-2
7.201268817E0,-9.542400390E-2,5.212509632E-2,6.937809289E-2
7.206320015E0,-9.648899734E-2,4.786509275E-2,6.937809289E-2
7.211371213E0,-9.861899912E-2,4.360509291E-2,7.044309378E-2
7.216422411E0,-9.329400212E-2,3.402009606E-2,6.724809110E-2
7.221473609E0,-9.009899944E-2,3.295509517E-2,6.298809499E-2
7.226524807E0,-8.477400243E-2,4.041009396E-2,5.766309053E-2
7.231591422E0,-7.838399708E-2,4.467009380E-2,5.340309441E-2
7.236642620E0,-7.305900007E-2,4.147509485E-2,4.807809740E-2
7.241693817E0,-6.347399950E-2,3.295509517E-2,4.275309294E-2
7.246745015E0,-5.282400176E-2,2.337009460E-2,3.849309683E-2
7.251796213E0,-4.856400192E-2,2.550009452E-2,3.529809415E-2
7.256847411E0,-4.323900118E-2,2.550009452E-2,3.529809415E-2
7.261886995E0,-3.791400045E-2,1.698009484E-2,3.742809594E-2
7.266938192E0,-3.258899972E-2,1.804509386E-2,3.742809594E-2
7.271989390E0,-2.939400077E-2,2.763009444E-2,3.742809594E-2
7.277040588E0,-2.726400085E-2,4.254009575E-2,3.849309683E-2
7.282091786E0,-2.939400077E-2,5.212509632E-2,4.062309116E-2
7.287142932E0,-2.939400077E-2,6.384009123E-2,3.849309683E-2
7.292179026E0,-3.152399883E-2,7.023008913E-2,3.742809594E-2
7.297230224E0,-3.684899956E-2,6.916508824E-2,4.168809205E-2
7.302281422E0,-4.217400029E-2,7.023008913E-2,4.275309294E-2
7.307332567E0,-4.856400192E-2,7.342509180E-2,4.275309294E-2
7.312383765E0,-5.175900087E-2,7.768508792E-2,4.275309294E-2
7.317434963E0,-5.814899877E-2,7.342509180E-2,3.955809027E-2
7.322497724E0,-6.560400128E-2,6.064509600E-2,3.423309326E-2
7.327548922E0,-6.986399740E-2,4.573509470E-2,2.890809439E-2
7.332600120E0,-7.092899829E-2,2.763009444E-2,2.358309366E-2
7.337651265E0,-6.666900218E-2,1.059009321E-2,1.612809300E-2
7.342702463E0,-6.240900233E-2,-6.449906621E-3,4.413093906E-3
7.347753661E0,-5.601900071E-2,-2.029490471E-2,-3.041906282E-3
7.352803088E0,-4.856400192E-2,-3.094490618E-2,-1.156190597E-2
7.357854286E0,-3.897900134E-2,-3.626990691E-2,-2.114690654E-2
7.362905484E0,-2.726400085E-2,-3.413990512E-2,-2.540690638E-2
7.367956682E0,-1.661400124E-2,-3.200990707E-2,-2.753690630E-2
7.373007880E0,-5.963999778E-3,-2.668490633E-2,-2.860190533E-2
7.378059078E0,3.621000098E-3,-2.135990560E-2,-2.860190533E-2
7.383102359E0,1.533600036E-2,-1.390490681E-2,-2.753690630E-2
7.388153557E0,2.279100008E-2,-8.579906076E-3,-2.647190541E-2
7.393204755E0,3.024599887E-2,2.070093527E-3,-2.434190549E-2
7.398255953E0,3.450600058E-2,7.395093795E-3,-2.008190565E-2
7.403307151E0,3.450600058E-2,1.165509317E-2,-1.688690670E-2
7.408358349E0,3.557099774E-2,1.272009313E-2,-1.262690593E-2
7.413414130E0,3.663599864E-2,1.378509402E-2,-7.301906124E-3
7.418465328E0,3.237599880E-2,1.059009321E-2,1.218093792E-3
7.423516526E0,3.131099790E-2,8.460094221E-3,6.543093827E-3
7.428567724E0,2.598599903E-2,4.200093914E-3,7.608093787E-3
7.433618922E0,1.959599927E-2,-5.990627687E-5,7.608093787E-3
7.438670120E0,1.001100056E-2,-3.254906274E-3,6.543093827E-3
7.443695432E0,1.490999945E-3,-5.384906661E-3,3.348093713E-3
7.448746682E0,-7.029000204E-3,-6.449906621E-3,3.348093713E-3
7.453797880E0,-1.448399946E-2,-6.449906621E-3,1.530938316E-4
7.458849078E0,-2.087400109E-2,-6.449906621E-3,-9.119062452E-4
7.463900224E0,-2.832899988E-2,-9.644906037E-3,-5.171906203E-3
7.468951422E0,-3.578399867E-2,-1.496990677E-2,-9.431906044E-3
7.474021838E0,-3.791400045E-2,-2.029490471E-2,-1.582190581E-2
7.479073036E0,-4.110899940E-2,-2.668490633E-2,-2.114690654E-2
7.484124234E0,-4.110899940E-2,-3.094490618E-2,-2.327690646E-2
7.489175432E0,-4.430400208E-2,-3.839990497E-2,-2.753690630E-2
7.494226630E0,-4.217400029E-2,-3.733490407E-2,-2.966690622E-2
7.499277776E0,-3.897900134E-2,-2.774990536E-2,-2.860190533E-2
7.504328713E0,-4.217400029E-2,-1.177490689E-2,-2.860190533E-2
7.509379911E0,-4.536899924E-2,1.591509394E-2,-2.647190541E-2
7.514431109E0,-5.069399998E-2,4.254009575E-2,-2.327690646E-2
7.519482255E0,-6.347399950E-2,6.490509212E-2,-2.327690646E-2
7.524533505E0,-7.518900186E-2,8.407509327E-2,-1.795190573E-2
7.529584651E0,-9.116400033E-2,1.011150926E-1,-1.049690600E-2
7.534653974E0,-1.071389988E-1,1.096350923E-1,-3.041906282E-3
7.539705172E0,-1.241789982E-1,1.149600893E-1,4.413093906E-3
7.544756370E0,-1.369589865E-1,1.170900911E-1,1.399809401E-2
7.549807567E0,-1.529339999E-1,1.128300875E-1,1.825809292E-2
7.554858765E0,-1.625189930E-1,1.043100879E-1,1.612809300E-2
7.559909911E0,-1.689089984E-1,9.259509295E-2,1.399809401E-2
7.564948974E0,-1.710390002E-1,7.342509180E-2,8.673094213E-3
7.570000172E0,-1.689089984E-1,5.425509438E-2,7.608093787E-3
7.575051370E0,-1.657139957E-1,3.508509323E-2,4.413093906E-3
7.580102567E0,-1.550639868E-1,2.124009468E-2,2.283093752E-3
7.585153765E0,-1.401539892E-1,7.395093795E-3,-9.119062452E-4
7.590204911E0,-1.209840029E-1,-3.254906274E-3,-1.156190597E-2
7.595256213E0,-1.050089970E-1,-1.496990677E-2,-2.221190557E-2
7.600307411E0,-8.903399855E-2,-3.200990707E-2,-3.179690987E-2
7.605358609E0,-7.518900186E-2,-5.117990449E-2,-3.818690777E-2
7.610409807E0,-6.134400144E-2,-7.354491204E-2,-3.712190688E-2
7.615460953E0,-5.282400176E-2,-8.419490606E-2,-3.605690598E-2
7.620512151E0,-4.430400208E-2,-8.525990695E-2,-3.286190331E-2
7.625570432E0,-3.578399867E-2,-8.845490962E-2,-3.179690987E-2
7.630621630E0,-3.258899972E-2,-8.632490784E-2,-3.499190509E-2
7.635672828E0,-3.258899972E-2,-8.312991261E-2,-3.073190711E-2
7.640723974E0,-3.471900150E-2,-7.993490994E-2,-2.966690622E-2
7.645775172E0,-3.684899956E-2,-6.715490669E-2,-2.966690622E-2
7.650826370E0,-3.791400045E-2,-4.904990643E-2,-2.860190533E-2
7.655880588E0,-4.110899940E-2,-2.455490641E-2,-2.860190533E-2
7.660931786E0,-4.430400208E-2,-5.384906661E-3,-2.647190541E-2
7.665982984E0,-4.962899908E-2,7.395093795E-3,-2.327690646E-2
7.671034182E0,-5.388899893E-2,1.272009313E-2,-1.901690662E-2
7.676085380E0,-5.708400160E-2,1.804509386E-2,-1.475690585E-2
7.681136526E0,-5.921399966E-2,1.804509386E-2,-1.156190597E-2
7.686170224E0,-6.027900055E-2,2.337009460E-2,-1.049690600E-2
7.691221422E0,-5.921399966E-2,2.230509371E-2,-9.431906044E-3
7.696272620E0,-5.601900071E-2,1.911009476E-2,-9.431906044E-3
7.701323817E0,-5.175900087E-2,8.460094221E-3,-9.431906044E-3
7.706375015E0,-4.536899924E-2,-7.514906116E-3,-8.366906084E-3
7.711426161E0,-3.471900150E-2,-1.709990576E-2,-7.301906124E-3
7.716480276E0,-1.980900019E-2,-1.709990576E-2,-1.262690593E-2
7.721531474E0,-3.834000090E-3,-1.603490487E-2,-1.901690662E-2
7.726582724E0,1.320600044E-2,-1.283990685E-2,-2.647190541E-2
7.731633870E0,3.131099790E-2,-7.514906116E-3,-3.499190509E-2
7.736685067E0,4.941599816E-2,-4.319906235E-3,-4.351190478E-2
7.741736265E0,6.326100230E-2,-2.189906314E-3,-5.203190446E-2
7.746794130E0,7.284600288E-2,-1.124906237E-3,-6.374690682E-2
7.751845328E0,7.710599899E-2,-1.124906237E-3,-7.226690650E-2
7.756896526E0,7.817099988E-2,-8.579906076E-3,-7.865690440E-2
7.761947724E0,7.497599721E-2,-1.283990685E-2,-8.185190707E-2
7.766998922E0,6.539099663E-2,-1.816490479E-2,-8.504690975E-2
7.772050120E0,5.048099905E-2,-2.774990536E-2,-8.398190886E-2
7.777107463E0,3.770099953E-2,-3.200990707E-2,-7.759191096E-2
7.782158661E0,1.640100032E-2,-3.839990497E-2,-7.226690650E-2
7.787209859E0,1.490999945E-3,-4.052990675E-2,-7.013690472E-2
7.792261057E0,-1.448399946E-2,-4.265990481E-2,-6.587690860E-2
7.797312255E0,-2.832899988E-2,-3.946490586E-2,-6.055190414E-2
7.802363453E0,-3.791400045E-2,-3.413990512E-2,-5.522690713E-2
7.807410588E0,-4.110899940E-2,-2.348990552E-2,-4.990190268E-2
7.812461786E0,-4.004400223E-2,-1.496990677E-2,-4.457690567E-2
7.817512984E0,-3.578399867E-2,-1.070990600E-2,-3.818690777E-2
7.822564182E0,-2.832899988E-2,-8.579906076E-3,-2.966690622E-2
7.827615380E0,-1.554899942E-2,-6.449906621E-3,-2.114690654E-2
7.832666578E0,-1.704000053E-3,-2.189906314E-3,-1.475690585E-2
7.837704130E0,1.640100032E-2,-2.189906314E-3,-1.049690600E-2
7.842755276E0,3.024599887E-2,-1.124906237E-3,-3.041906282E-3
7.847806526E0,4.302600026E-2,1.005093683E-3,-3.041906282E-3
7.852857672E0,5.367599800E-2,-2.189906314E-3,-1.976906089E-3
7.857908870E0,6.326100230E-2,-7.514906116E-3,1.530938316E-4
7.862960067E0,7.071600109E-2,-1.496990677E-2,2.283093752E-3
7.868018922E0,7.817099988E-2,-2.348990552E-2,2.283093752E-3
7.873070120E0,8.136600256E-2,-3.626990691E-2,1.218093792E-3
7.878121317E0,7.923600078E-2,-4.585490376E-2,-1.976906089E-3
7.883172463E0,7.391099632E-2,-5.330990627E-2,-9.431906044E-3
7.888223661E0,6.965100020E-2,-6.182990596E-2,-1.795190573E-2
7.893274859E0,5.900099874E-2,-6.715490669E-2,-2.753690630E-2
7.898333974E0,4.941599816E-2,-7.141491026E-2,-3.712190688E-2
7.903385172E0,3.344099969E-2,-7.886990905E-2,-4.138190299E-2
7.908436370E0,2.172599919E-2,-8.206491172E-2,-4.564190656E-2
7.913487567E0,8.946000598E-3,-8.206491172E-2,-4.883690923E-2
7.918538765E0,4.259999841E-4,-7.993490994E-2,-4.670690745E-2
7.923589963E0,-8.093999699E-3,-7.886990905E-2,-4.244690388E-2
7.928632047E0,-1.554899942E-2,-7.141491026E-2,-4.138190299E-2
7.933683245E0,-2.087400109E-2,-6.395991147E-2,-3.818690777E-2
7.938734442E0,-2.300400101E-2,-6.076490507E-2,-3.605690598E-2
7.943785640E0,-2.193900011E-2,-5.756990612E-2,-3.392690420E-2
7.948836838E0,-1.874400117E-2,-5.117990449E-2,-3.179690987E-2
7.953888036E0,-1.235399954E-2,-4.478990659E-2,-2.860190533E-2
7.958942359E0,-4.898999818E-3,-4.372490570E-2,-3.073190711E-2
7.963993557E0,2.555999905E-3,-4.265990481E-2,-3.179690987E-2
7.969044755E0,8.946000598E-3,-4.052990675E-2,-3.073190711E-2
7.974095953E0,1.640100032E-2,-3.839990497E-2,-3.392690420E-2
7.979147151E0,2.385599911E-2,-3.626990691E-2,-3.499190509E-2
7.984198349E0,3.131099790E-2,-3.307490423E-2,-3.392690420E-2
7.989303401E0,3.770099953E-2,-3.307490423E-2,-3.605690598E-2
7.994354547E0,4.302600026E-2,-3.413990512E-2,-3.925190866E-2
7.999405797E0,4.409100115E-2,-3.626990691E-2,-4.031690955E-2
8.004456995E0,4.515599832E-2,-4.052990675E-2,-3.605690598E-2
8.009508140E0,4.728600010E-2,-4.159490392E-2,-3.179690987E-2
8.014559338E0,4.835100099E-2,-3.307490423E-2,-2.647190541E-2
8.019553922E0,5.154599994E-2,-2.881490625E-2,-2.221190557E-2
8.024605120E0,5.687100068E-2,-3.094490618E-2,-2.008190565E-2
8.029656317E0,6.539099663E-2,-3.520490602E-2,-2.008190565E-2
8.034707463E0,6.752099842E-2,-3.307490423E-2,-2.221190557E-2
8.039758661E0,6.858599931E-2,-2.774990536E-2,-2.327690646E-2
8.044809859E0,6.752099842E-2,-2.561990544E-2,-2.114690654E-2
8.049859651E0,6.539099663E-2,-2.881490625E-2,-2.008190565E-2
8.054910797E0,6.432600319E-2,-3.307490423E-2,-2.008190565E-2
8.059962047E0,6.006599963E-2,-4.052990675E-2,-2.114690654E-2
8.065013192E0,5.048099905E-2,-5.011490732E-2,-2.434190549E-2
8.070064390E0,4.089599848E-2,-5.650490522E-2,-2.647190541E-2
8.075115588E0,3.237599880E-2,-6.182990596E-2,-2.860190533E-2
8.080171265E0,2.492100000E-2,-6.182990596E-2,-2.966690622E-2
8.085222463E0,1.959599927E-2,-5.863490701E-2,-3.073190711E-2
8.090273609E0,1.214100048E-2,-5.224490538E-2,-3.179690987E-2
8.095324807E0,1.001100056E-2,-4.904990643E-2,-3.073190711E-2
8.100375953E0,1.001100056E-2,-4.159490392E-2,-3.179690987E-2
8.105427151E0,8.946000598E-3,-3.307490423E-2,-3.179690987E-2
8.110478453E0,1.001100056E-2,-2.668490633E-2,-3.392690420E-2
8.115529651E0,1.320600044E-2,-1.603490487E-2,-3.286190331E-2
8.120580797E0,1.959599927E-2,-8.579906076E-3,-3.073190711E-2
8.125631995E0,2.598599903E-2,-1.124906237E-3,-2.860190533E-2
8.130683140E0,2.811599895E-2,9.525093250E-3,-2.860190533E-2
8.135734338E0,3.344099969E-2,1.272009313E-2,-2.327690646E-2
8.140792359E0,3.770099953E-2,1.698009484E-2,-1.901690662E-2
8.145843557E0,4.089599848E-2,2.124009468E-2,-1.795190573E-2
8.150894703E0,4.728600010E-2,2.869509533E-2,-2.008190565E-2
8.155945901E0,4.835100099E-2,3.082509525E-2,-1.901690662E-2
8.160997047E0,4.941599816E-2,3.295509517E-2,-2.221190557E-2
8.166048245E0,4.941599816E-2,3.295509517E-2,-2.434190549E-2
8.171139807E0,4.622099921E-2,2.869509533E-2,-2.647190541E-2
8.176190953E0,4.409100115E-2,2.550009452E-2,-2.647190541E-2
8.181242151E0,3.770099953E-2,2.230509371E-2,-2.540690638E-2
8.186293297E0,3.131099790E-2,1.591509394E-2,-2.753690630E-2
8.191344495E0,2.172599919E-2,9.525093250E-3,-3.073190711E-2
8.196395640E0,1.214100048E-2,5.265093409E-3,-3.286190331E-2
8.201393713E0,5.750999786E-3,1.005093683E-3,-3.073190711E-2
8.206444859E0,-4.898999818E-3,-5.384906661E-3,-3.286190331E-2
8.211496057E0,-1.341899950E-2,-1.603490487E-2,-3.286190331E-2
8.216547203E0,-2.087400109E-2,-2.135990560E-2,-3.179690987E-2
8.221598401E0,-2.726400085E-2,-2.774990536E-2,-3.073190711E-2
8.226649547E0,-2.939400077E-2,-3.626990691E-2,-2.753690630E-2
8.231699599E0,-3.045899980E-2,-3.733490407E-2,-2.540690638E-2
8.236750745E0,-2.939400077E-2,-3.200990707E-2,-2.434190549E-2
8.241801942E0,-2.832899988E-2,-2.881490625E-2,-2.008190565E-2
8.246853088E0,-2.513400093E-2,-2.668490633E-2,-1.582190581E-2
8.251904286E0,-1.980900019E-2,-1.922990568E-2,-1.369190589E-2
8.256955432E0,-1.767900027E-2,-1.603490487E-2,-1.369190589E-2
8.262017047E0,-1.448399946E-2,-1.283990685E-2,-8.366906084E-3
8.267068245E0,-1.341899950E-2,-6.449906621E-3,-5.171906203E-3
8.272119390E0,-1.022399962E-2,-4.319906235E-3,-1.976906089E-3
8.277170588E0,-9.158999659E-3,-5.384906661E-3,1.218093792E-3
8.282221734E0,-7.029000204E-3,-2.189906314E-3,3.348093713E-3
8.287272932E0,-5.963999778E-3,-3.254906274E-3,2.283093752E-3
8.292321682E0,-4.898999818E-3,-6.449906621E-3,6.543093827E-3
8.297372880E0,1.490999945E-3,-4.319906235E-3,9.738094173E-3
8.302424026E0,4.685999826E-3,1.005093683E-3,1.399809401E-2
8.307475224E0,1.001100056E-2,5.265093409E-3,1.719309390E-2
8.312526370E0,1.427100040E-2,4.200093914E-3,2.038809471E-2
8.317577567E0,1.853100024E-2,4.200093914E-3,2.038809471E-2
8.322636838E0,2.492100000E-2,1.059009321E-2,1.825809292E-2
8.327688036E0,2.918099985E-2,1.485009398E-2,1.825809292E-2
8.332739182E0,3.344099969E-2,1.911009476E-2,1.825809292E-2
8.337790380E0,3.663599864E-2,2.443509363E-2,1.825809292E-2
8.342841526E0,3.770099953E-2,2.656509541E-2,1.399809401E-2
8.347892724E0,3.770099953E-2,2.656509541E-2,1.186809409E-2
8.352962515E0,3.663599864E-2,2.337009460E-2,7.608093787E-3
8.358013661E0,3.450600058E-2,2.230509371E-2,8.673094213E-3
8.363064859E0,3.237599880E-2,2.230509371E-2,6.543093827E-3
8.368116005E0,2.918099985E-2,2.337009460E-2,8.673094213E-3
8.373167203E0,2.705099992E-2,2.550009452E-2,9.738094173E-3
8.378218349E0,2.492100000E-2,2.869509533E-2,7.608093787E-3
8.383241057E0,2.279100008E-2,2.976009436E-2,6.543093827E-3
8.388292255E0,2.066100016E-2,2.337009460E-2,2.283093752E-3
8.393343401E0,1.853100024E-2,2.124009468E-2,-4.106906243E-3
8.398394547E0,1.640100032E-2,1.485009398E-2,-8.366906084E-3
8.403445745E0,1.320600044E-2,1.378509402E-2,-1.156190597E-2
8.408496890E0,1.320600044E-2,1.059009321E-2,-1.262690593E-2
8.413538245E0,1.320600044E-2,1.165509317E-2,-1.262690593E-2
8.418589390E0,1.427100040E-2,1.165509317E-2,-1.369190589E-2
8.423640588E0,1.533600036E-2,1.911009476E-2,-1.369190589E-2
8.428691734E0,2.066100016E-2,2.230509371E-2,-1.262690593E-2
8.433742932E0,2.492100000E-2,2.337009460E-2,-8.366906084E-3
8.438794078E0,3.131099790E-2,2.230509371E-2,-7.301906124E-3
8.443885745E0,3.770099953E-2,2.550009452E-2,-5.171906203E-3
8.448936942E0,4.196099937E-2,3.189009428E-2,-6.236906163E-3
8.453988088E0,4.409100115E-2,3.295509517E-2,-7.301906124E-3
8.459039234E0,4.089599848E-2,3.402009606E-2,-7.301906124E-3
8.464090432E0,3.770099953E-2,3.508509323E-2,-8.366906084E-3
8.469141578E0,3.344099969E-2,3.402009606E-2,-1.262690593E-2
8.474159859E0,2.598599903E-2,2.869509533E-2,-1.582190581E-2
8.479211057E0,1.853100024E-2,2.656509541E-2,-2.327690646E-2
8.484262255E0,7.881000638E-3,2.337009460E-2,-2.434190549E-2
8.489313401E0,4.259999841E-4,1.698009484E-2,-2.327690646E-2
8.494364599E0,-4.898999818E-3,8.460094221E-3,-2.434190549E-2
8.499415745E0,-1.022399962E-2,3.135093488E-3,-2.540690638E-2
8.504473713E0,-1.448399946E-2,5.265093409E-3,-2.434190549E-2
8.509524911E0,-1.341899950E-2,9.525093250E-3,-2.753690630E-2
8.514576057E0,-1.661400124E-2,1.485009398E-2,-3.179690987E-2
8.519627203E0,-1.661400124E-2,1.591509394E-2,-2.966690622E-2
8.524678401E0,-1.767900027E-2,1.591509394E-2,-2.647190541E-2
8.529729547E0,-1.661400124E-2,1.698009484E-2,-2.114690654E-2
8.534775484E0,-1.554899942E-2,1.911009476E-2,-1.582190581E-2
8.539826682E0,-1.448399946E-2,2.337009460E-2,-6.236906163E-3
8.544877828E0,-1.235399954E-2,2.017509378E-2,4.413093906E-3
8.549928974E0,-1.235399954E-2,2.017509378E-2,1.080309413E-2
8.554980172E0,-9.158999659E-3,2.124009468E-2,1.719309390E-2
8.560031317E0,-5.963999778E-3,1.804509386E-2,1.932309382E-2
8.565089182E0,-3.834000090E-3,1.698009484E-2,1.825809292E-2
8.570140328E0,-6.390000344E-4,1.698009484E-2,1.719309390E-2
8.575191526E0,4.259999841E-4,1.378509402E-2,1.506309398E-2
8.580242672E0,-1.704000053E-3,9.525093250E-3,1.080309413E-2
8.585293870E0,-3.834000090E-3,8.460094221E-3,2.283093752E-3
8.590345015E0,-5.963999778E-3,8.460094221E-3,-3.041906282E-3
8.595407255E0,-1.128899958E-2,4.200093914E-3,-6.236906163E-3
8.600458453E0,-1.448399946E-2,2.070093527E-3,-9.431906044E-3
8.605509599E0,-1.448399946E-2,5.265093409E-3,-1.049690600E-2
8.610560797E0,-1.767900027E-2,8.460094221E-3,-4.106906243E-3
8.615611942E0,-1.874400117E-2,8.460094221E-3,-9.119062452E-4
8.620663140E0,-2.087400109E-2,9.525093250E-3,-9.119062452E-4
8.625703765E0,-1.980900019E-2,8.460094221E-3,2.283093752E-3
8.630754963E0,-1.554899942E-2,8.460094221E-3,6.543093827E-3
8.635806109E0,-1.128899958E-2,5.265093409E-3,9.738094173E-3
8.640857255E0,-9.158999659E-3,6.330093369E-3,1.719309390E-2
8.645908453E0,-3.834000090E-3,9.525093250E-3,2.145309374E-2
8.650959599E0,4.259999841E-4,1.485009398E-2,2.358309366E-2
8.656003974E0,2.555999905E-3,1.378509402E-2,2.677809447E-2
8.661055172E0,4.685999826E-3,1.804509386E-2,2.251809463E-2
8.666106317E0,4.685999826E-3,2.230509371E-2,1.825809292E-2
8.671157463E0,5.750999786E-3,2.656509541E-2,1.506309398E-2
8.676208661E0,3.621000098E-3,2.124009468E-2,9.738094173E-3
8.681259807E0,4.259999841E-4,1.591509394E-2,5.478093866E-3
8.686289599E0,-5.963999778E-3,1.059009321E-2,2.283093752E-3
8.691340797E0,-7.029000204E-3,4.200093914E-3,1.218093792E-3
8.696391942E0,-1.022399962E-2,-1.124906237E-3,1.218093792E-3
8.701443088E0,-1.235399954E-2,-8.579906076E-3,2.283093752E-3
8.706494286E0,-8.093999699E-3,-1.496990677E-2,6.543093827E-3
8.711545484E0,-5.963999778E-3,-1.816490479E-2,1.080309413E-2
8.716619495E0,-2.768999897E-3,-1.603490487E-2,1.080309413E-2
8.721670692E0,1.490999945E-3,-8.579906076E-3,1.293309405E-2
8.726721890E0,6.816000212E-3,-6.449906621E-3,1.506309398E-2
8.731772984E0,1.001100056E-2,-6.449906621E-3,1.719309390E-2
8.736824182E0,1.320600044E-2,-5.384906661E-3,2.251809463E-2
8.741875328E0,1.746599935E-2,-5.990627687E-5,2.784309350E-2
8.746941005E0,1.959599927E-2,2.070093527E-3,3.103809431E-2
8.751992151E0,2.279100008E-2,4.200093914E-3,3.316809237E-2
8.757043349E0,2.811599895E-2,-5.990627687E-5,3.210309148E-2
8.762094495E0,2.918099985E-2,1.005093683E-3,2.890809439E-2
8.767145692E0,3.131099790E-2,1.005093683E-3,2.464809455E-2
8.772196838E0,3.237599880E-2,-5.384906661E-3,1.825809292E-2
8.777233974E0,3.024599887E-2,-6.449906621E-3,1.293309405E-2
8.782285172E0,2.918099985E-2,-8.579906076E-3,1.186809409E-2
8.787336317E0,2.492100000E-2,-1.177490689E-2,1.080309413E-2
8.792387463E0,1.959599927E-2,-1.177490689E-2,1.080309413E-2
8.797438661E0,1.214100048E-2,-1.070990600E-2,1.080309413E-2
8.802489807E0,7.881000638E-3,-1.177490689E-2,1.186809409E-2
8.807538609E0,2.555999905E-3,-1.070990600E-2,1.612809300E-2
8.812589807E0,-1.704000053E-3,-7.514906116E-3,1.932309382E-2
8.817640953E0,-5.963999778E-3,-8.579906076E-3,2.358309366E-2
8.822692151E0,-8.093999699E-3,-5.384906661E-3,2.464809455E-2
8.827743297E0,-8.093999699E-3,2.070093527E-3,2.677809447E-2
8.832794495E0,-3.834000090E-3,8.460094221E-3,2.784309350E-2
8.837856942E0,2.555999905E-3,1.698009484E-2,2.997309342E-2
8.842908140E0,1.107600052E-2,2.869509533E-2,3.103809431E-2
8.847959286E0,2.385599911E-2,3.508509323E-2,3.103809431E-2
8.853010432E0,3.983100131E-2,4.573509470E-2,3.210309148E-2
8.858061630E0,5.474099889E-2,5.319009349E-2,3.103809431E-2
8.863112776E0,6.752099842E-2,5.638509616E-2,3.210309148E-2
8.868166005E0,8.136600256E-2,5.851509422E-2,3.636309505E-2
8.873217203E0,9.734100103E-2,4.999509454E-2,3.636309505E-2
8.878268349E0,1.069260016E-1,3.934509307E-2,3.529809415E-2
8.883319547E0,1.133159995E-1,2.656509541E-2,4.062309116E-2
8.888370692E0,1.165110022E-1,1.804509386E-2,4.381809384E-2
8.893421838E0,1.207709983E-1,1.272009313E-2,4.594809562E-2
8.898474807E0,1.175760031E-1,4.200093914E-3,4.488309473E-2
8.903526005E0,1.122509986E-1,-2.189906314E-3,4.168809205E-2
8.908577151E0,9.947100282E-2,-5.990627687E-5,3.742809594E-2
8.913628297E0,8.775600046E-2,-5.384906661E-3,3.103809431E-2
8.918679495E0,7.284600288E-2,-8.579906076E-3,2.251809463E-2
8.923730692E0,5.793599784E-2,-9.644906037E-3,1.506309398E-2
8.928777724E0,4.409100115E-2,-1.177490689E-2,4.413093906E-3
8.933828922E0,2.705099992E-2,-1.496990677E-2,-4.106906243E-3
8.938880067E0,1.533600036E-2,-2.242490463E-2,-1.369190589E-2
8.943931213E0,3.621000098E-3,-3.200990707E-2,-1.688690670E-2
8.948982411E0,-7.029000204E-3,-4.159490392E-2,-2.114690654E-2
8.954033557E0,-1.448399946E-2,-5.011490732E-2,-2.647190541E-2
8.959074495E0,-1.874400117E-2,-5.863490701E-2,-3.073190711E-2
8.964125692E0,-2.300400101E-2,-6.182990596E-2,-3.392690420E-2
8.969176838E0,-2.406900004E-2,-5.969990417E-2,-3.392690420E-2
8.974228036E0,-2.193900011E-2,-5.330990627E-2,-3.392690420E-2
8.979279182E0,-2.087400109E-2,-4.798490554E-2,-3.073190711E-2
8.984330380E0,-1.980900019E-2,-3.733490407E-2,-2.860190533E-2
8.989397203E0,-1.554899942E-2,-3.094490618E-2,-2.860190533E-2
8.994448401E0,-1.341899950E-2,-3.307490423E-2,-2.327690646E-2
8.999499547E0,-1.235399954E-2,-3.733490407E-2,-2.327690646E-2
9.004550745E0,-1.448399946E-2,-3.946490586E-2,-1.901690662E-2
9.009601890E0,-1.341899950E-2,-4.159490392E-2,-1.688690670E-2
9.014653036E0,-1.448399946E-2,-4.159490392E-2,-1.688690670E-2
9.019706682E0,-1.661400124E-2,-4.372490570E-2,-1.156190597E-2
9.024757828E0,-1.554899942E-2,-4.372490570E-2,-8.366906084E-3
9.029809026E0,-1.448399946E-2,-4.159490392E-2,-5.171906203E-3
9.034860224E0,-1.767900027E-2,-4.052990675E-2,-4.106906243E-3
9.039911370E0,-1.767900027E-2,-3.946490586E-2,-3.041906282E-3
9.044962515E0,-1.448399946E-2,-3.733490407E-2,-3.041906282E-3
9.050006317E0,-1.554899942E-2,-3.307490423E-2,-5.171906203E-3
9.055057463E0,-1.235399954E-2,-3.200990707E-2,-9.431906044E-3
9.060108661E0,-1.022399962E-2,-2.561990544E-2,-9.431906044E-3
9.065159807E0,-5.963999778E-3,-1.816490479E-2,-8.366906084E-3
9.070211005E0,-2.768999897E-3,-9.644906037E-3,-9.431906044E-3
9.075262151E0,-4.898999818E-3,1.005093683E-3,-8.366906084E-3
9.080314130E0,-3.834000090E-3,8.460094221E-3,-8.366906084E-3
9.085365380E0,-5.963999778E-3,1.591509394E-2,-8.366906084E-3
9.090416578E0,-7.029000204E-3,1.698009484E-2,-3.041906282E-3
9.095467776E0,-9.158999659E-3,1.698009484E-2,3.348093713E-3
9.100519026E0,-1.022399962E-2,1.804509386E-2,7.608093787E-3
9.105570224E0,-1.341899950E-2,2.230509371E-2,9.738094173E-3
9.110617880E0,-1.554899942E-2,2.656509541E-2,8.673094213E-3
9.115669078E0,-1.874400117E-2,2.443509363E-2,8.673094213E-3
9.120720328E0,-2.087400109E-2,2.443509363E-2,8.673094213E-3
9.125771526E0,-2.300400101E-2,2.763009444E-2,9.738094173E-3
9.130822776E0,-2.619899996E-2,3.189009428E-2,1.080309413E-2
9.135873974E0,-2.619899996E-2,3.402009606E-2,1.080309413E-2
9.140921890E0,-2.832899988E-2,4.041009396E-2,5.478093866E-3
9.145973140E0,-2.726400085E-2,4.680009559E-2,2.283093752E-3
9.151024338E0,-2.193900011E-2,5.212509632E-2,-9.119062452E-4
9.156075536E0,-2.193900011E-2,5.532009527E-2,-9.119062452E-4
9.161126786E0,-1.767900027E-2,5.319009349E-2,1.218093792E-3
9.166177984E0,-1.022399962E-2,4.573509470E-2,1.218093792E-3
9.171237776E0,-5.963999778E-3,3.828009591E-2,2.283093752E-3
9.176289026E0,-2.768999897E-3,3.402009606E-2,2.283093752E-3
9.181340224E0,-6.390000344E-4,2.869509533E-2,6.543093827E-3
9.186391422E0,1.490999945E-3,2.763009444E-2,9.738094173E-3
9.191442620E0,1.490999945E-3,2.976009436E-2,1.399809401E-2
9.196493870E0,-6.390000344E-4,3.508509323E-2,1.825809292E-2
9.201545067E0,-5.963999778E-3,4.147509485E-2,2.251809463E-2
9.206596317E0,-1.341899950E-2,4.147509485E-2,2.145309374E-2
9.211647515E0,-2.300400101E-2,3.721509501E-2,2.038809471E-2
9.216698713E0,-3.258899972E-2,3.402009606E-2,1.719309390E-2
9.221749911E0,-4.323900118E-2,2.869509533E-2,1.293309405E-2
9.226801161E0,-5.388899893E-2,2.656509541E-2,8.673094213E-3
9.231861265E0,-6.134400144E-2,2.550009452E-2,5.478093866E-3
9.236912463E0,-7.092899829E-2,2.230509371E-2,3.348093713E-3
9.241963713E0,-7.731900364E-2,1.698009484E-2,3.348093713E-3
9.247014911E0,-7.838399708E-2,1.698009484E-2,4.413093906E-3
9.252066109E0,-8.051399887E-2,1.804509386E-2,3.348093713E-3
9.257117359E0,-7.412400097E-2,1.165509317E-2,5.478093866E-3
9.262157724E0,-6.453900039E-2,2.070093527E-3,3.348093713E-3
9.267208974E0,-5.814899877E-2,4.200093914E-3,5.478093866E-3
9.272260172E0,-4.430400208E-2,6.330093369E-3,6.543093827E-3
9.277311370E0,-2.832899988E-2,5.265093409E-3,9.738094173E-3
9.282362620E0,-1.448399946E-2,7.395093795E-3,1.506309398E-2
9.287413817E0,1.490999945E-3,1.165509317E-2,2.145309374E-2
9.292453088E0,1.427100040E-2,1.272009313E-2,2.677809447E-2
9.297504338E0,2.385599911E-2,1.272009313E-2,2.890809439E-2
9.302555536E0,2.918099985E-2,8.460094221E-3,3.423309326E-2
9.307606734E0,3.450600058E-2,6.330093369E-3,3.955809027E-2
9.312657984E0,3.663599864E-2,7.395093795E-3,4.168809205E-2
9.317709182E0,3.344099969E-2,6.330093369E-3,3.849309683E-2
9.322747567E0,2.598599903E-2,5.265093409E-3,4.062309116E-2
9.327798765E0,1.746599935E-2,2.070093527E-3,3.955809027E-2
9.332849963E0,5.750999786E-3,2.070093527E-3,3.742809594E-2
9.337901213E0,-4.898999818E-3,2.070093527E-3,3.423309326E-2
9.342952411E0,-1.554899942E-2,-2.189906314E-3,2.784309350E-2
9.348003661E0,-2.726400085E-2,-7.514906116E-3,2.571309358E-2
9.353057203E0,-3.897900134E-2,-8.579906076E-3,2.571309358E-2
9.358108453E0,-4.323900118E-2,-7.514906116E-3,2.358309366E-2
9.363159599E0,-5.069399998E-2,-3.254906274E-3,1.932309382E-2
9.368210849E0,-5.814899877E-2,-4.319906235E-3,1.932309382E-2
9.373262099E0,-5.814899877E-2,-6.449906621E-3,1.825809292E-2
9.378313297E0,-5.814899877E-2,-3.254906274E-3,1.399809401E-2
9.383377567E0,-5.814899877E-2,-5.384906661E-3,1.080309413E-2
9.388428817E0,-5.495399982E-2,-8.579906076E-3,9.738094173E-3
9.393480015E0,-5.175900087E-2,-1.496990677E-2,8.673094213E-3
9.398531213E0,-4.962899908E-2,-2.348990552E-2,8.673094213E-3
9.403582411E0,-4.323900118E-2,-2.561990544E-2,1.293309405E-2
9.408633661E0,-3.684899956E-2,-2.668490633E-2,1.719309390E-2
9.413704651E0,-2.939400077E-2,-2.881490625E-2,2.358309366E-2
9.418755849E0,-2.193900011E-2,-2.561990544E-2,2.677809447E-2
9.423807099E0,-1.661400124E-2,-1.603490487E-2,2.997309342E-2
9.428858297E0,-9.158999659E-3,-7.514906116E-3,2.997309342E-2
9.433909547E0,-6.390000344E-4,-5.990627687E-5,3.103809431E-2
9.438960745E0,4.685999826E-3,4.200093914E-3,3.423309326E-2
9.443974963E0,1.320600044E-2,8.460094221E-3,3.849309683E-2
9.449026161E0,2.066100016E-2,1.059009321E-2,4.168809205E-2
9.454077359E0,2.598599903E-2,8.460094221E-3,4.488309473E-2
9.459128557E0,3.024599887E-2,9.525093250E-3,4.914309084E-2
9.464179807E0,3.237599880E-2,7.395093795E-3,4.914309084E-2
9.469231005E0,3.131099790E-2,-1.124906237E-3,4.488309473E-2
9.474306265E0,2.598599903E-2,-7.514906116E-3,3.955809027E-2
9.479357515E0,1.853100024E-2,-1.177490689E-2,3.316809237E-2
9.484408713E0,7.881000638E-3,-1.603490487E-2,2.571309358E-2
9.489459911E0,-3.834000090E-3,-1.816490479E-2,1.612809300E-2
9.494511161E0,-1.874400117E-2,-2.029490471E-2,9.738094173E-3
9.499562359E0,-2.939400077E-2,-2.668490633E-2,3.348093713E-3
9.504615380E0,-3.791400045E-2,-2.561990544E-2,1.218093792E-3
9.509666630E0,-4.323900118E-2,-2.774990536E-2,-9.119062452E-4
9.514717828E0,-4.749900103E-2,-2.987990528E-2,-1.976906089E-3
9.519769026E0,-4.749900103E-2,-3.094490618E-2,-4.106906243E-3
9.524820276E0,-4.110899940E-2,-2.881490625E-2,-7.301906124E-3
9.529871474E0,-3.578399867E-2,-2.455490641E-2,-9.431906044E-3
9.534920588E0,-3.045899980E-2,-2.135990560E-2,-1.262690593E-2
9.539971838E0,-2.087400109E-2,-1.709990576E-2,-1.582190581E-2
9.545023036E0,-1.235399954E-2,-1.603490487E-2,-1.369190589E-2
9.550074234E0,-2.768999897E-3,-1.496990677E-2,-1.369190589E-2
9.555125484E0,8.946000598E-3,-1.070990600E-2,-1.049690600E-2
9.560176682E0,2.066100016E-2,-9.644906037E-3,-9.431906044E-3
9.565197932E0,2.811599895E-2,-4.319906235E-3,-1.049690600E-2
9.570249182E0,3.663599864E-2,-6.449906621E-3,-1.582190581E-2
9.575300380E0,4.089599848E-2,-7.514906116E-3,-2.221190557E-2
9.580351578E0,4.409100115E-2,-1.124906237E-3,-3.286190331E-2
9.585402828E0,4.302600026E-2,2.070093527E-3,-3.818690777E-2
9.590454026E0,4.196099937E-2,5.265093409E-3,-4.457690567E-2
9.595538140E0,4.196099937E-2,8.460094221E-3,-5.309690535E-2
9.600589390E0,3.876600042E-2,1.059009321E-2,-5.416190624E-2
9.605640588E0,3.557099774E-2,4.200093914E-3,-5.203190446E-2
9.610691786E0,3.344099969E-2,4.200093914E-3,-5.416190624E-2
9.615742984E0,3.344099969E-2,-1.124906237E-3,-4.990190268E-2
9.620794234E0,3.237599880E-2,-6.449906621E-3,-4.670690745E-2
9.625824442E0,3.450600058E-2,-6.449906621E-3,-4.351190478E-2
9.630875640E0,3.450600058E-2,-4.319906235E-3,-3.818690777E-2
9.635926890E0,3.770099953E-2,-3.254906274E-3,-3.712190688E-2
9.640978088E0,3.770099953E-2,-2.189906314E-3,-3.818690777E-2
9.646029286E0,3.876600042E-2,-1.124906237E-3,-3.925190866E-2
9.651080484E0,3.663599864E-2,1.005093683E-3,-4.244690388E-2
9.656123557E0,3.237599880E-2,4.200093914E-3,-4.883690923E-2
9.661174755E0,2.492100000E-2,-5.990627687E-5,-5.309690535E-2
9.666225953E0,1.533600036E-2,-4.319906235E-3,-5.522690713E-2
9.671277203E0,5.750999786E-3,-6.449906621E-3,-5.735690892E-2
9.676328401E0,-6.390000344E-4,-1.070990600E-2,-5.948690325E-2
9.681379599E0,-7.029000204E-3,-1.496990677E-2,-6.161690503E-2
9.686455536E0,-1.022399962E-2,-1.390490681E-2,-6.268190593E-2
9.691506786E0,-1.022399962E-2,-1.177490689E-2,-6.587690860E-2
9.696557984E0,-7.029000204E-3,-1.390490681E-2,-7.120190561E-2
9.701609182E0,-1.704000053E-3,-1.390490681E-2,-7.439690828E-2
9.706660380E0,3.621000098E-3,-1.709990576E-2,-7.865690440E-2
9.711711630E0,7.881000638E-3,-2.029490471E-2,-8.185190707E-2
9.716758140E0,1.001100056E-2,-2.455490641E-2,-8.504690975E-2
9.721809390E0,1.640100032E-2,-2.881490625E-2,-8.504690975E-2
9.726860588E0,1.959599927E-2,-3.200990707E-2,-8.611191064E-2
9.731911786E0,1.746599935E-2,-3.094490618E-2,-8.611191064E-2
9.736963036E0,1.533600036E-2,-2.881490625E-2,-8.185190707E-2
9.742014234E0,1.533600036E-2,-2.455490641E-2,-7.972190529E-2
9.747074026E0,1.214100048E-2,-1.816490479E-2,-8.078690618E-2
9.752125276E0,8.946000598E-3,-6.449906621E-3,-7.865690440E-2
9.757176474E0,6.816000212E-3,6.330093369E-3,-7.546190917E-2
9.762227672E0,5.750999786E-3,1.485009398E-2,-7.439690828E-2
9.767278922E0,3.621000098E-3,2.230509371E-2,-7.013690472E-2
9.772330120E0,1.490999945E-3,3.295509517E-2,-6.481190771E-2
9.777379338E0,4.259999841E-4,4.147509485E-2,-5.842190981E-2
9.782430588E0,4.685999826E-3,5.106009543E-2,-5.096690357E-2
9.787481786E0,8.946000598E-3,5.638509616E-2,-4.457690567E-2
9.792532984E0,1.107600052E-2,5.638509616E-2,-4.244690388E-2
9.797584182E0,1.427100040E-2,5.851509422E-2,-3.818690777E-2
9.802635432E0,1.640100032E-2,5.425509438E-2,-3.605690598E-2
9.807672411E0,1.853100024E-2,4.893009365E-2,-3.925190866E-2
9.812723609E0,1.959599927E-2,4.041009396E-2,-4.244690388E-2
9.817774807E0,1.959599927E-2,2.763009444E-2,-4.564190656E-2
9.822826005E0,2.385599911E-2,1.698009484E-2,-4.138190299E-2
9.827877255E0,2.598599903E-2,8.460094221E-3,-3.605690598E-2
9.832928453E0,2.811599895E-2,1.005093683E-3,-3.179690987E-2
9.837988765E0,3.450600058E-2,2.070093527E-3,-2.540690638E-2
9.843040015E0,3.557099774E-2,5.265093409E-3,-2.114690654E-2
9.848091213E0,3.983100131E-2,1.272009313E-2,-1.688690670E-2
9.853142411E0,4.196099937E-2,2.124009468E-2,-1.156190597E-2
9.858193609E0,4.515599832E-2,3.082509525E-2,-9.431906044E-3
9.863244859E0,4.409100115E-2,3.934509307E-2,-6.236906163E-3
9.868301838E0,3.876600042E-2,4.467009380E-2,-3.041906282E-3
9.873353088E0,3.344099969E-2,4.893009365E-2,-1.976906089E-3
9.878404286E0,2.279100008E-2,5.319009349E-2,-4.106906243E-3
9.883455484E0,1.320600044E-2,4.999509454E-2,-4.106906243E-3
9.888506734E0,1.490999945E-3,4.254009575E-2,-6.236906163E-3
9.893557932E0,-9.158999659E-3,3.295509517E-2,-1.049690600E-2
9.898596526E0,-1.874400117E-2,1.804509386E-2,-1.369190589E-2
9.903647776E0,-2.939400077E-2,-1.124906237E-3,-1.688690670E-2
9.908698974E0,-3.471900150E-2,-1.496990677E-2,-1.901690662E-2
9.913750172E0,-3.791400045E-2,-2.348990552E-2,-2.221190557E-2
9.918801422E0,-3.897900134E-2,-3.413990512E-2,-2.434190549E-2
9.923852567E0,-3.578399867E-2,-3.733490407E-2,-2.647190541E-2
9.928904859E0,-3.258899972E-2,-3.626990691E-2,-2.860190533E-2
9.933956109E0,-2.939400077E-2,-3.413990512E-2,-2.860190533E-2
9.939007307E0,-2.406900004E-2,-2.561990544E-2,-2.860190533E-2
9.944058505E0,-1.661400124E-2,-1.922990568E-2,-2.327690646E-2
9.949109703E0,-1.128899958E-2,-8.579906076E-3,-2.008190565E-2
9.954160953E0,-2.768999897E-3,6.330093369E-3,-1.156190597E-2
9.959229859E0,4.685999826E-3,1.272009313E-2,-7.301906124E-3
9.964281109E0,1.107600052E-2,2.124009468E-2,-5.171906203E-3
9.969332307E0,1.533600036E-2,3.082509525E-2,1.218093792E-3
9.974383505E0,1.959599927E-2,3.402009606E-2,4.413093906E-3
9.979434703E0,1.959599927E-2,3.508509323E-2,5.478093866E-3
9.984485953E0,1.853100024E-2,3.082509525E-2,9.738094173E-3
9.989507672E0,1.853100024E-2,2.230509371E-2,1.186809409E-2
9.994558870E0,1.746599935E-2,1.059009321E-2,8.673094213E-3
9.999610067E0,1.107600052E-2,-2.189906314E-3,7.608093787E-3
1.000466127E1,3.621000098E-3,-1.816490479E-2,4.413093906E-3
1.000971252E1,-4.898999818E-3,-2.987990528E-2,-9.119062452E-4
1.001476371E1,-1.022399962E-2,-3.946490586E-2,-7.301906124E-3
1.001982731E1,-1.767900027E-2,-4.478990659E-2,-1.369190589E-2
1.002487856E1,-2.726400085E-2,-4.265990481E-2,-1.901690662E-2
1.002992976E1,-3.365400061E-2,-3.946490586E-2,-2.327690646E-2
1.003498095E1,-3.791400045E-2,-2.881490625E-2,-2.647190541E-2
1.004003220E1,-4.004400223E-2,-1.922990568E-2,-2.434190549E-2
1.004508340E1,-3.791400045E-2,-7.514906116E-3,-2.008190565E-2
1.005015074E1,-4.110899940E-2,4.200093914E-3,-1.475690585E-2
1.005520200E1,-4.110899940E-2,7.395093795E-3,-1.049690600E-2
1.006025319E1,-4.323900118E-2,1.165509317E-2,-9.119062452E-4
1.006530439E1,-3.897900134E-2,1.591509394E-2,1.080309413E-2
