"Time (s)","Linear Acceleration x (m/s^2)","Linear Acceleration y (m/s^2)","Linear Acceleration z (m/s^2)","Absolute acceleration (m/s^2)"
4.841735200E-2,0.000000000E0,0.000000000E0,0.000000000E0,0.000000000E0
5.346797700E-2,-1.091852784E-2,1.510095596E-2,5.299663544E-2,5.617736634E-2
5.851860200E-2,1.178495586E-2,1.814270020E-2,5.239486694E-3,2.225971644E-2
6.356917400E-2,-5.318522453E-3,5.606889725E-3,4.176902771E-2,4.247794215E-2
6.861979900E-2,8.652429283E-2,-2.625131607E-2,7.363700867E-2,1.166104365E-1
7.368563300E-2,1.572682500E0,-4.711210728E-2,3.287153244E-1,1.607359188E0
7.873625800E-2,1.343071461E0,4.418921471E-2,6.409749985E-1,1.488839341E0
8.378683100E-2,2.654766440E-1,2.285410166E-1,6.949996948E-1,7.782887771E-1
8.883745600E-2,-2.217497826E-1,3.074907064E-1,6.094055176E-1,7.177036892E-1
9.388802900E-2,-4.578028321E-1,2.646152973E-1,4.626541138E-1,7.026048090E-1
9.893865400E-2,-5.413728356E-1,1.380090714E-1,3.211402893E-1,6.444083615E-1
1.039763620E-1,-4.357005060E-1,6.766319275E-3,2.756214142E-1,5.156043812E-1
1.090269350E-1,-2.791395783E-1,-1.221098900E-1,2.667770386E-1,4.049687861E-1
1.140775600E-1,-2.192350924E-1,-1.370427608E-1,2.760152817E-1,3.781919880E-1
1.191281330E-1,-1.897473633E-1,-1.666833162E-1,2.953224182E-1,3.885906850E-1
1.241787580E-1,-1.974686980E-1,-1.788022518E-1,2.386960983E-1,3.576869571E-1
1.292293830E-1,-2.513253093E-1,-1.834071875E-1,2.317266464E-1,3.879430965E-1
1.342592270E-1,-2.921944559E-1,-1.399754286E-1,1.560726166E-1,3.596239457E-1
1.393098520E-1,-3.388006389E-1,-1.663578749E-1,8.512592316E-2,3.869201962E-1
1.443604770E-1,-3.724362552E-1,-1.746889353E-1,-3.419208527E-2,4.127881866E-1
1.494110490E-1,-3.732445240E-1,-2.223889828E-1,-1.249971390E-1,4.520980194E-1
1.544616740E-1,-3.996224999E-1,-2.553545237E-1,-2.324180603E-1,5.281308834E-1
1.595122470E-1,-4.023595154E-1,-2.441102266E-1,-3.356056213E-1,5.780260509E-1
1.646004770E-1,-3.732505739E-1,-2.680950165E-1,-4.512243271E-1,6.440452796E-1
1.696510490E-1,-3.572265804E-1,-2.752561569E-1,-5.929384232E-1,7.449515121E-1
1.747016220E-1,-3.125064671E-1,-2.591058016E-1,-7.025947571E-1,8.114403866E-1
1.797522470E-1,-3.115793467E-1,-2.432899475E-1,-7.586040497E-1,8.554249190E-1
1.848028720E-1,-2.860001624E-1,-2.232130766E-1,-8.045196533E-1,8.825372757E-1
1.898534970E-1,-2.526819110E-1,-1.755627394E-1,-8.037719727E-1,8.606508047E-1
1.948954770E-1,-2.304040343E-1,-1.101840734E-1,-7.439937592E-1,7.866087100E-1
1.999461020E-1,-1.953917593E-1,-7.897138596E-2,-6.893901825E-1,7.208836544E-1
2.049967270E-1,-1.571128368E-1,-4.581856728E-2,-6.141328812E-1,6.355650874E-1
2.100472990E-1,-1.667657346E-1,-2.718353271E-2,-5.255880356E-1,5.520801915E-1
2.150979240E-1,-1.367903054E-1,-1.366114616E-2,-4.494524002E-1,4.700060368E-1
2.201485490E-1,-1.334057301E-1,1.120817661E-2,-3.968448639E-1,4.188180489E-1
2.252156330E-1,-1.582132727E-1,-9.002804756E-3,-3.366794586E-1,3.721095914E-1
2.302662580E-1,-1.689541489E-1,3.656506538E-3,-2.597045898E-1,3.098472986E-1
2.353168310E-1,-1.869513690E-1,-8.467435837E-4,-2.618265152E-1,3.217213941E-1
2.403675080E-1,-2.098343521E-1,1.049375534E-2,-2.592992783E-1,3.337314638E-1
2.454180810E-1,-2.281188816E-1,-2.133846283E-5,-2.569065094E-1,3.435683035E-1
2.504686540E-1,-2.186126709E-1,1.019489765E-2,-2.382736206E-1,3.235270531E-1
2.554968310E-1,-2.589992285E-1,8.096098900E-3,-2.248363495E-1,3.430707379E-1
2.605474040E-1,-3.129277229E-1,7.917642593E-3,-2.070693970E-1,3.753187765E-1
2.655979770E-1,-3.100165129E-1,2.763986588E-3,-1.569919586E-1,3.475116587E-1
2.706486020E-1,-2.936992049E-1,-3.297674656E-2,-1.713066101E-1,3.416030495E-1
2.756991740E-1,-2.242216617E-1,-2.847170830E-2,-2.087621689E-1,3.076810604E-1
2.807498520E-1,-1.988700628E-1,-2.198362350E-2,-2.056140900E-1,2.868967333E-1
2.858004240E-1,-1.863272637E-1,-5.550920963E-2,-2.049779892E-1,2.825156591E-1
2.908805810E-1,-2.213770747E-1,-5.096340179E-2,-1.175937653E-1,2.557994745E-1
2.959312060E-1,-3.141787350E-1,-7.486712933E-2,-4.135227203E-2,3.256123078E-1
3.009817790E-1,-3.884512782E-1,-1.338160038E-1,-2.057647705E-2,4.113690677E-1
3.060324040E-1,-4.303546548E-1,-1.190077066E-1,1.628112793E-2,4.468031314E-1
3.110830290E-1,-4.570184946E-1,-1.140853167E-1,3.137588501E-3,4.710532967E-1
3.161336020E-1,-4.735120833E-1,-9.534525871E-2,2.319622040E-2,4.835726171E-1
3.212192270E-1,-4.941510260E-1,-4.185903072E-2,-2.996921539E-2,4.968254913E-1
3.262698520E-1,-4.484038949E-1,-4.586458206E-2,-5.394172668E-2,4.539596047E-1
3.313204770E-1,-4.082639515E-1,-1.686739922E-2,-4.455661774E-2,4.110343726E-1
3.363711020E-1,-3.620694578E-1,2.354907990E-2,-2.360820770E-2,3.636017036E-1
3.414216740E-1,-2.958645225E-1,4.204046726E-2,-6.424045563E-2,3.056632995E-1
3.464722990E-1,-2.167191058E-1,1.167712212E-1,-2.918243408E-3,2.461934302E-1
3.514981330E-1,-1.487184167E-1,8.893299103E-2,8.096981049E-2,1.912651421E-1
3.565487060E-1,-8.946891129E-2,7.040429115E-2,1.377191544E-1,1.786841229E-1
3.615993310E-1,-2.224546671E-2,9.150528908E-2,1.819715500E-1,2.048944209E-1
3.666499560E-1,1.731945574E-2,9.949350357E-2,2.540855408E-1,2.734197923E-1
3.717005290E-1,6.023520231E-2,6.370854378E-2,3.206901550E-1,3.324593715E-1
3.767511540E-1,2.411067486E-3,7.423615456E-2,3.512735367E-1,3.590402728E-1
3.817961020E-1,-2.919687331E-2,1.187555790E-1,3.274879456E-1,3.495764572E-1
3.868467270E-1,-4.479481280E-2,1.163997650E-1,3.020763397E-1,3.268112537E-1
3.918972990E-1,-1.168200374E-2,7.971286774E-2,2.372684479E-1,2.505731966E-1
3.969479240E-1,2.014118433E-2,8.744668961E-2,1.595115662E-1,1.830205742E-1
4.019985490E-1,1.121223718E-1,8.230090141E-2,6.896209717E-2,1.552437937E-1
4.070491220E-1,1.904118806E-1,1.143190861E-1,-1.302337646E-2,2.224750459E-1
4.120953200E-1,2.908819914E-1,7.470059395E-2,-1.055688858E-1,3.183352027E-1
4.171459450E-1,2.949636281E-1,8.560371399E-2,-2.607078552E-1,4.028648948E-1
4.221965180E-1,2.847557664E-1,6.683611870E-2,-4.045791626E-1,4.992366293E-1
4.272471430E-1,2.090226263E-1,4.046106339E-2,-5.469350815E-1,5.869118667E-1
4.322977680E-1,1.379045546E-1,7.745742798E-3,-7.094039917E-1,7.227251802E-1
4.373483410E-1,1.988628320E-2,-3.525876999E-2,-8.399419785E-1,8.409168641E-1
4.423881850E-1,-1.364750862E-1,-9.979200363E-2,-9.131031036E-1,9.286232665E-1
4.474388100E-1,-2.358111888E-1,-1.852221489E-1,-1.050374031E0,1.092336837E0
4.524893830E-1,-3.856649995E-1,-2.883292437E-1,-1.118666649E0,1.217902425E0
4.575400080E-1,-5.597208738E-1,-3.330072165E-1,-1.199333191E0,1.364764216E0
4.625906330E-1,-6.535779834E-1,-4.311593771E-1,-1.218870163E0,1.448691500E0
4.676412060E-1,-7.445911169E-1,-5.158096552E-1,-1.204035759E0,1.506710868E0
4.727181330E-1,-7.645394802E-1,-6.133697033E-1,-1.143301964E0,1.505949000E0
4.777687060E-1,-7.759593129E-1,-6.205605268E-1,-9.966497421E-1,1.407309110E0
4.828193310E-1,-8.005953431E-1,-5.884331465E-1,-8.028020859E-1,1.277379216E0
4.878699040E-1,-7.390680313E-1,-6.013786793E-1,-5.856466293E-1,1.118418457E0
4.929205290E-1,-6.779097915E-1,-6.004313231E-1,-4.399366379E-1,1.006788808E0
4.979711540E-1,-5.603698492E-1,-5.391733646E-1,-3.054246902E-1,8.354678488E-1
5.030301640E-1,-4.896729290E-1,-5.375034809E-1,-1.415166855E-1,7.407540359E-1
5.080807370E-1,-4.161871374E-1,-4.747076035E-1,3.032779694E-2,6.320433667E-1
5.131313620E-1,-3.451415896E-1,-4.184708595E-1,2.220201492E-1,5.861173294E-1
5.181819870E-1,-3.098775744E-1,-3.337123394E-1,3.955535889E-1,6.032003633E-1
5.232325600E-1,-2.815995812E-1,-2.830014229E-1,5.915441513E-1,7.136614130E-1
5.282831850E-1,-2.342892885E-1,-2.356649637E-1,7.624483109E-1,8.317192270E-1
5.333231850E-1,-2.389109582E-1,-1.779569387E-1,8.659553528E-1,9.157651396E-1
5.383737580E-1,-2.587649822E-1,-1.812049150E-1,1.004726410E0,1.053218731E0
5.434243830E-1,-2.742447555E-1,-1.860939264E-1,1.147690773E0,1.194585805E0
5.484750080E-1,-3.039997816E-1,-1.667964458E-1,1.195255280E0,1.244536904E0
5.535256330E-1,-3.523848057E-1,-1.969845295E-1,1.252696991E0,1.316141219E0
5.585762580E-1,-4.045686424E-1,-2.075127363E-1,1.215574265E0,1.297828230E0
5.636515700E-1,-4.318897724E-1,-2.366938591E-1,1.108534813E0,1.213013681E0
5.687021430E-1,-4.204082787E-1,-2.959897518E-1,9.701461792E-1,1.097969336E0
5.737527680E-1,-4.296861589E-1,-3.299866915E-1,7.578754425E-1,9.316096812E-1
5.788033930E-1,-3.816449046E-1,-3.289768696E-1,5.031461716E-1,7.120636797E-1
5.838540180E-1,-3.602860272E-1,-3.497757912E-1,2.584333420E-1,5.647450024E-1
5.889045910E-1,-3.707210422E-1,-3.037978411E-1,3.773307800E-2,4.807816599E-1
5.939130290E-1,-3.585235775E-1,-2.738074064E-1,-1.546239853E-1,4.768838729E-1
5.989636540E-1,-3.525514603E-1,-2.025268078E-1,-2.952156067E-1,5.024558632E-1
6.040142270E-1,-3.199053705E-1,-1.419378519E-1,-4.250001907E-1,5.505551398E-1
6.090648520E-1,-2.631568909E-1,-7.014393806E-2,-4.753103256E-1,5.478061947E-1
6.141154240E-1,-1.730006039E-1,-1.049709320E-2,-5.110454559E-1,5.396358550E-1
6.191660490E-1,-1.016665101E-1,3.965437412E-2,-5.086116791E-1,5.201868787E-1
6.242068830E-1,-2.959644794E-2,1.115173101E-1,-4.944944382E-1,5.077763381E-1
6.292575080E-1,8.396005630E-2,1.268522739E-1,-4.403390884E-1,4.658747721E-1
6.343080810E-1,1.514063478E-1,1.503536701E-1,-4.034824371E-1,4.564298252E-1
6.393587060E-1,2.048211843E-1,1.059554815E-1,-3.362569809E-1,4.077340295E-1
6.444093310E-1,2.280556560E-1,1.011080742E-1,-2.745351791E-1,3.709471518E-1
6.494599560E-1,2.502231002E-1,1.213258505E-1,-2.681694031E-1,3.863242040E-1
6.545355290E-1,2.619538307E-1,1.212650537E-1,-3.166837692E-1,4.285016130E-1
6.595861020E-1,2.256062180E-1,1.582895517E-1,-3.602695465E-1,4.535944157E-1
6.646367270E-1,2.006663531E-1,1.631534100E-1,-3.752155304E-1,4.557112185E-1
6.696873520E-1,1.535732746E-1,1.457839012E-1,-4.449415207E-1,4.927582098E-1
6.747379240E-1,9.594947100E-2,1.158599854E-1,-4.549779892E-1,4.792022619E-1
6.797885490E-1,3.705395758E-2,1.092746258E-1,-5.103826523E-1,5.232632142E-1
6.848277160E-1,-1.942828298E-3,1.043981314E-1,-4.967470169E-1,5.076025445E-1
6.898782890E-1,-7.404662669E-2,8.686101437E-2,-4.098844528E-1,4.254797332E-1
6.949288620E-1,-1.267535090E-1,8.268845081E-2,-2.955026627E-1,3.320024934E-1
6.999795390E-1,-1.764727533E-1,9.150934219E-2,-1.799011230E-1,2.681063342E-1
7.050301120E-1,-1.968931854E-1,5.594599247E-2,-6.541156769E-2,2.148849779E-1
7.100807370E-1,-1.883597374E-1,4.613757133E-3,4.327583313E-2,1.933222056E-1
7.151527160E-1,-2.151813656E-1,-1.977264881E-2,1.391172409E-1,2.569972460E-1
7.202032890E-1,-2.389506251E-1,-4.155933857E-2,2.412986755E-1,3.421251681E-1
7.252539140E-1,-2.240067720E-1,-4.669320583E-2,2.999172211E-1,3.772394848E-1
7.303045390E-1,-2.419249564E-1,-4.755580425E-2,3.676652908E-1,4.426816070E-1
7.353551120E-1,-2.710887194E-1,-9.195601940E-2,4.635210037E-1,5.447905324E-1
7.404057370E-1,-2.588866949E-1,-9.622764587E-2,4.850769043E-1,5.581950230E-1
7.454537580E-1,-2.556415200E-1,-1.252653599E-1,4.829168320E-1,5.605824326E-1
7.505043310E-1,-2.210131288E-1,-1.764813662E-1,4.667348862E-1,5.457416327E-1
7.555549040E-1,-1.671621203E-1,-1.497189999E-1,4.603652954E-1,5.121475946E-1
7.606055810E-1,-1.633258164E-1,-1.479296684E-1,4.281187057E-1,4.815019577E-1
7.656561540E-1,-1.424084008E-1,-1.588730812E-1,3.464288712E-1,4.068584168E-1
7.707067790E-1,-1.334010363E-1,-1.754180193E-1,3.321208954E-1,3.985870132E-1
7.757246950E-1,-1.033673882E-1,-1.711704731E-1,3.133144379E-1,3.716854649E-1
7.807752680E-1,-6.198084354E-2,-1.366196871E-1,2.496271133E-1,2.912391793E-1
7.858258930E-1,-9.389966726E-3,-1.316959858E-1,1.628665924E-1,2.096605139E-1
7.908765180E-1,7.799161971E-2,-9.169769287E-2,1.196765900E-1,1.697458271E-1
7.959271430E-1,9.536892176E-2,-8.079457283E-2,5.788230896E-2,1.377438054E-1
8.009777160E-1,1.477320641E-1,-8.205604553E-2,-4.613208771E-2,1.751745612E-1
8.060280810E-1,1.656921059E-1,-8.820128441E-2,-5.425071716E-2,1.953880263E-1
8.110787060E-1,2.256989777E-1,-4.672288895E-2,-1.074647903E-1,2.543063862E-1
8.161293310E-1,2.419119179E-1,-7.430958748E-2,-1.840381622E-1,3.129110672E-1
8.211799040E-1,2.505097985E-1,-3.499388695E-2,-1.673660278E-1,3.033003768E-1
8.262305290E-1,2.446136773E-1,-5.734956264E-2,-1.224107742E-1,2.794802696E-1
8.312811020E-1,2.003705353E-1,-6.494116783E-2,-7.315158844E-2,2.229727821E-1
8.363669870E-1,2.206622064E-1,-6.488764286E-2,-9.802722931E-2,2.500231054E-1
8.414175600E-1,2.077805102E-1,-7.631850243E-2,-6.574821472E-2,2.309114158E-1
8.464681850E-1,1.690880060E-1,-1.229152679E-1,-5.042934418E-2,2.150396141E-1
8.515188100E-1,1.310046315E-1,-1.571373940E-1,-7.325553894E-2,2.173033549E-1
8.565693830E-1,1.127355844E-1,-1.978344917E-1,-6.981086731E-2,2.381624557E-1
8.616200080E-1,1.070434004E-1,-2.117042542E-1,-1.115770340E-1,2.621572339E-1
8.666611540E-1,1.233665943E-1,-2.037713528E-1,-9.126567841E-2,2.550911697E-1
8.717117270E-1,8.797115088E-2,-1.763869524E-1,-1.543359756E-1,2.503415142E-1
8.767623520E-1,7.500284910E-2,-1.841981411E-1,-1.979722977E-1,2.806196950E-1
8.818129770E-1,4.820972681E-2,-1.626219749E-1,-2.603855133E-1,3.107582662E-1
8.868635490E-1,2.878731489E-2,-1.640608311E-1,-3.034420013E-1,3.461527321E-1
8.919141740E-1,2.841699123E-2,-1.668879986E-1,-3.296937943E-1,3.706172249E-1
8.969706330E-1,-5.652010441E-3,-2.161781788E-1,-3.488035202E-1,4.104008357E-1
9.020212580E-1,-2.585813403E-2,-2.021270990E-1,-4.036264420E-1,4.521485507E-1
9.070718830E-1,-1.359027624E-2,-1.797484159E-1,-3.418722153E-1,3.864851876E-1
9.121225080E-1,3.567194939E-2,-1.588622332E-1,-2.523536682E-1,3.003199477E-1
9.171730810E-1,7.657951117E-2,-1.348100901E-1,-1.685380936E-1,2.290049582E-1
9.222236540E-1,1.357266009E-1,-1.173292398E-1,-1.021957397E-1,2.064747683E-1
9.272230290E-1,1.536102593E-1,-1.068197489E-1,2.054309845E-2,1.882248374E-1
9.322736540E-1,1.735755652E-1,-7.957136631E-2,1.707372665E-1,2.561470151E-1
9.373242270E-1,2.146090120E-1,-4.548323154E-2,2.294225693E-1,3.174278937E-1
9.423748520E-1,2.128025144E-1,-2.861320972E-2,2.663164139E-1,3.420936396E-1
9.474254240E-1,2.136575729E-1,-4.317224026E-2,2.982463837E-1,3.694107553E-1
9.524760490E-1,2.052228153E-1,-3.704857826E-2,2.896890640E-1,3.569436298E-1
9.574946430E-1,1.946734786E-1,-4.837048054E-2,3.074865341E-1,3.671313598E-1
9.625452160E-1,1.721512824E-1,-3.651523590E-2,2.848672867E-1,3.348414513E-1
9.675958410E-1,1.378548145E-1,1.004219055E-2,2.245750427E-1,2.637020009E-1
9.726464660E-1,1.037773490E-1,-3.731489182E-2,1.839437485E-1,2.144701423E-1
9.776970390E-1,4.573068023E-2,-3.992462158E-2,1.295156479E-1,1.430369657E-1
9.827476640E-1,-7.039308548E-4,1.776695251E-3,1.350460052E-1,1.350595265E-1
9.877982370E-1,-3.094205260E-2,-1.473343372E-2,1.145105362E-1,1.195288567E-1
9.928902680E-1,-2.852764726E-2,-5.821943283E-3,9.187889099E-2,9.638180477E-2
9.979408410E-1,6.075277925E-2,-2.373099327E-2,7.900047302E-2,1.024457660E-1
1.002991518E0,7.216680050E-2,-1.136219501E-2,4.493141174E-2,8.576700025E-2
1.008042091E0,1.514521241E-1,1.193284988E-2,7.301616669E-2,1.685571102E-1
1.013092716E0,2.218022943E-1,5.330336094E-2,1.056976318E-1,2.514149864E-1
1.018143289E0,3.048342168E-1,6.958460808E-2,1.073570251E-1,3.305925714E-1
1.023196987E0,3.793424964E-1,1.489385366E-1,1.328954697E-1,4.286544332E-1
1.028247612E0,4.719929099E-1,1.958334446E-1,2.106389999E-1,5.527176796E-1
1.033298185E0,5.166242719E-1,2.653405666E-1,2.688817978E-1,6.400028717E-1
1.038348758E0,5.472823381E-1,3.310937881E-1,2.317924500E-1,6.803446142E-1
1.043399383E0,5.334022641E-1,3.647291660E-1,2.426853180E-1,6.902474219E-1
1.048437091E0,4.376755059E-1,2.764165401E-1,9.684848785E-2,5.266360999E-1
1.053487716E0,2.134510428E-1,1.696717739E-2,-4.113626480E-1,4.637547422E-1
1.058538289E0,2.323445380E-1,8.052051067E-2,-6.808099747E-1,7.238575541E-1
1.063588862E0,6.076228619E-2,1.143999100E-1,-5.828285217E-1,5.970498141E-1
1.068639487E0,-1.697434187E-1,1.668087244E-1,-5.407171249E-1,5.907732119E-1
1.073690112E0,-1.616123915E-1,2.177416086E-1,-6.298723221E-1,6.857617045E-1
1.078775529E0,1.361646652E-1,1.818031073E-1,-6.710224152E-1,7.084237909E-1
1.083826154E0,3.794790804E-1,1.337801218E-1,-6.741294861E-1,7.850809242E-1
1.088876779E0,4.883391857E-1,1.615095139E-1,-5.444412231E-1,7.489837974E-1
1.093927404E0,5.415673256E-1,1.903781891E-1,-4.041814804E-1,7.020695778E-1
1.098977977E0,5.842399597E-1,1.958615780E-1,-3.008346558E-1,6.857110021E-1
1.104028602E0,5.927834511E-1,2.226854563E-1,-2.102298737E-1,6.672163308E-1
1.109067664E0,6.151478291E-1,2.632621527E-1,-8.469581604E-2,6.744532555E-1
1.114118289E0,5.345739126E-1,2.981758118E-1,-5.025863647E-4,6.121097413E-1
1.119168862E0,4.656875730E-1,2.773927450E-1,1.496124268E-1,5.623126611E-1
1.124219487E0,3.704315424E-1,2.724257708E-1,1.727170944E-1,4.911888872E-1
1.129270112E0,3.061133325E-1,2.022647858E-1,2.979393005E-1,4.726354226E-1
1.134320685E0,2.583923936E-1,1.763064861E-1,3.439607620E-1,4.649296849E-1
1.139382508E0,1.677971184E-1,1.468296051E-1,3.708038330E-1,4.326780425E-1
1.144433081E0,1.533674896E-1,8.996093273E-2,3.881454468E-1,4.269325990E-1
1.149483706E0,1.316467822E-1,5.072081089E-2,3.557491302E-1,3.827021291E-1
1.154534279E0,1.050975323E-1,-4.097223282E-3,3.143796921E-1,3.315069672E-1
1.159584904E0,6.915557384E-2,-4.348480701E-2,2.949991226E-1,3.061011339E-1
1.164635529E0,2.882209420E-2,-9.824216366E-2,2.142524719E-1,2.374581175E-1
1.169659435E0,-5.382552743E-2,-1.392235756E-1,1.200809479E-1,1.915719850E-1
1.174710060E0,-1.286606789E-1,-2.113367319E-1,3.154087067E-2,2.494225552E-1
1.179760685E0,-1.623216867E-1,-2.520939112E-1,-5.148220062E-2,3.042204579E-1
1.184811310E0,-2.052783668E-1,-2.849520445E-1,-1.148834229E-1,3.695065309E-1
1.189861883E0,-2.238755822E-1,-2.930490971E-1,-2.087450027E-1,4.237599860E-1
1.194912508E0,-1.990618706E-1,-2.931200266E-1,-2.663049698E-1,4.432418248E-1
1.199997977E0,-1.572378576E-1,-2.800023556E-1,-3.021898270E-1,4.409577695E-1
1.205048549E0,-1.247400045E-1,-2.870765924E-1,-2.880764008E-1,4.253951708E-1
1.210099174E0,-8.488085866E-2,-2.738305330E-1,-2.338724136E-1,3.699786843E-1
1.215149799E0,-5.652001500E-2,-2.451204062E-1,-2.563133240E-1,3.591309589E-1
1.220200372E0,-2.084162831E-2,-2.440352440E-1,-2.145805359E-1,3.256261356E-1
1.225250997E0,2.431538701E-2,-1.897315979E-1,-1.899576187E-1,2.695796992E-1
1.230315529E0,2.650177479E-2,-1.728914976E-1,-9.679031372E-2,1.999054247E-1
1.235366102E0,4.060885310E-2,-1.864231825E-1,-5.674839020E-2,1.990554237E-1
1.240416727E0,1.664856076E-2,-1.829059124E-1,-2.895164490E-2,1.859299468E-1
1.245467352E0,-7.037192583E-3,-1.603074074E-1,2.236843109E-2,1.620133749E-1
1.250517924E0,-4.517662525E-2,-1.450232267E-1,2.812004089E-2,1.544778316E-1
1.255568549E0,-1.673412323E-2,-1.348255873E-1,2.910423279E-2,1.389425285E-1
1.260613237E0,3.968557715E-2,-1.085554361E-1,2.064609528E-2,1.174116221E-1
1.265663810E0,1.022947431E-1,-1.161531210E-1,-1.620197296E-2,1.556221896E-1
1.270714435E0,5.238571763E-2,-1.383861303E-1,-2.417850494E-2,1.499319332E-1
1.275765060E0,5.966919661E-2,-1.442996264E-1,-1.539134979E-2,1.569066246E-1
1.280815633E0,3.788974881E-2,-1.363013983E-1,-1.886367798E-3,1.414823757E-1
1.285866258E0,1.586049795E-3,-1.169366837E-1,3.293418884E-2,1.214963552E-1
1.290903341E0,-3.953590989E-2,-9.355092049E-2,7.228565216E-2,1.246598508E-1
1.295953966E0,-4.015991092E-2,-6.852936745E-2,6.862068176E-2,1.049661403E-1
1.301004539E0,-6.234836578E-2,-5.853331089E-2,6.981277466E-2,1.103960629E-1
1.306055164E0,-7.719391584E-2,-7.548284531E-2,7.585525513E-2,1.319491580E-1
1.311105789E0,-1.133826077E-1,-8.825886250E-2,4.393959045E-2,1.502528873E-1
1.316156362E0,-1.041551828E-1,-6.819653511E-2,9.989738464E-3,1.248954138E-1
1.321203549E0,-8.555382490E-2,-9.400737286E-2,-1.409530640E-2,1.278887046E-1
1.326254174E0,-5.528721213E-2,-1.391780376E-1,-8.778762817E-2,1.735910990E-1
1.331304747E0,-9.449476004E-2,-8.467376232E-2,-1.180562973E-1,1.733095353E-1
1.336355372E0,-9.568411112E-2,-6.646692753E-2,-1.290531158E-1,1.738620381E-1
1.341405997E0,-7.564574480E-2,-7.227373123E-2,-1.708335876E-1,2.003244508E-1
1.346456570E0,-6.556373835E-2,-5.191254616E-2,-1.600179672E-1,1.805526684E-1
1.351508497E0,-1.514416933E-2,-5.300295353E-2,-1.588058472E-1,1.681010293E-1
1.356559070E0,-7.903933525E-3,-2.056872845E-2,-1.457633972E-1,1.474195127E-1
1.361609695E0,-5.283749104E-2,1.438140869E-2,-1.590099335E-1,1.681748623E-1
1.366660320E0,-2.130526304E-2,2.802956104E-2,-1.531896591E-1,1.571834666E-1
1.371710945E0,1.931926608E-2,4.187643528E-2,-1.379661560E-1,1.454700315E-1
1.376761518E0,4.516068101E-2,4.394197464E-2,-8.252525330E-2,1.038306394E-1
1.381819695E0,2.545985579E-2,8.197784424E-3,-7.034587860E-2,7.525922244E-2
1.386870268E0,5.530890822E-2,1.804339886E-2,-7.731914520E-2,9.676202657E-2
1.391920893E0,3.494948149E-2,3.014206886E-2,1.287460327E-3,4.616999161E-2
1.396971518E0,4.095038772E-2,-1.249432564E-2,5.311107635E-2,6.821897726E-2
1.402022091E0,6.823039055E-2,-1.449382305E-2,7.363414764E-2,1.014270418E-1
1.407072716E0,1.071387529E-1,-5.225348473E-2,9.400653839E-2,1.518103037E-1
1.412128654E0,1.027490497E-1,-4.017317295E-2,1.285018921E-1,1.693634769E-1
1.417179227E0,1.482021213E-1,-9.440898895E-3,1.983737946E-1,2.478006491E-1
1.422229852E0,1.292247474E-1,-5.546689034E-3,2.083425522E-1,2.452272826E-1
1.427280424E0,1.271450520E-1,2.604246140E-3,1.779146194E-1,2.186921538E-1
1.432331049E0,1.106887162E-1,1.265537739E-2,1.786708832E-1,2.105598133E-1
1.437381674E0,9.908306599E-2,1.952886581E-2,1.747684479E-1,2.018485594E-1
1.442430164E0,8.047622442E-2,9.210109711E-3,1.970996857E-1,2.130951311E-1
1.447480737E0,7.623222470E-2,-1.341497898E-2,1.694288254E-1,1.862724902E-1
1.452531362E0,6.924086809E-2,1.124823093E-2,1.301469803E-1,1.478480875E-1
1.457581987E0,3.844833374E-2,-2.172064781E-2,1.007480621E-1,1.100010588E-1
1.462632508E0,5.062699318E-2,-1.428651810E-2,7.400321960E-2,9.079467798E-2
1.467683133E0,4.845753312E-2,2.872157097E-2,5.223369598E-2,7.682070132E-2
1.472728549E0,5.111014843E-2,-2.112507820E-3,2.587699890E-2,5.732651249E-2
1.477779122E0,6.552705169E-2,1.730346680E-2,1.397323608E-2,6.919866901E-2
1.482829747E0,4.894143343E-2,3.686857224E-2,7.101631165E-2,9.379697247E-2
1.487880372E0,7.335078716E-2,3.535938263E-2,1.037864685E-1,1.319176067E-1
1.492930997E0,7.166144252E-2,5.323970318E-2,1.314926147E-1,1.589343766E-1
1.497981570E0,8.935979009E-2,3.332722187E-2,1.636857986E-1,1.894437027E-1
1.503033810E0,9.560948610E-2,2.566814423E-2,1.861057281E-1,2.107969865E-1
1.508084435E0,6.664007902E-2,2.778232098E-2,2.344646454E-1,2.453292225E-1
1.513135008E0,4.838275909E-2,2.519166470E-2,2.563238144E-1,2.620637502E-1
1.518185633E0,1.461058855E-2,5.951642990E-3,1.782817841E-1,1.789784509E-1
1.523236258E0,5.608171225E-3,-2.267980576E-2,1.175603867E-1,1.198593746E-1
1.528286831E0,-3.398644924E-2,-4.874682426E-2,1.072492599E-1,1.226121339E-1
1.533327143E0,-8.764296770E-2,-2.709579468E-2,8.276844025E-2,1.235560058E-1
1.538377716E0,-7.445627451E-2,-8.112907410E-3,7.038021088E-2,1.027761167E-1
1.543428393E0,-6.894946098E-2,1.514124870E-2,3.436279297E-2,7.851170055E-2
1.548478966E0,-5.215829611E-2,3.565979004E-2,8.144378662E-3,6.370588185E-2
1.553529591E0,-2.670064569E-2,3.921508789E-2,3.513336182E-3,4.757195738E-2
1.558580164E0,-1.869055629E-2,3.523838520E-2,-3.193759918E-2,5.109883489E-2
1.563648966E0,1.491749287E-2,5.700504780E-2,-8.368587494E-2,1.023495615E-1
1.568699539E0,6.204569340E-2,4.735720158E-2,-7.083511353E-2,1.054039179E-1
1.573750164E0,7.498234510E-2,7.792532444E-2,-9.609222412E-2,1.446665953E-1
1.578800789E0,9.216922522E-2,7.953333855E-2,-9.974956512E-2,1.573870826E-1
1.583851362E0,7.099616528E-2,1.049537659E-1,-1.105213165E-1,1.681389600E-1
1.588901987E0,5.718460679E-2,1.490839720E-1,-1.188116074E-1,1.990284100E-1
1.593952560E0,4.590028524E-2,1.218522787E-1,-1.674528122E-1,2.121208578E-1
1.599003133E0,-7.825791836E-4,9.749495983E-2,-1.397037506E-1,1.703614321E-1
1.604053758E0,3.053963184E-3,8.063542843E-2,-1.573324203E-1,1.768188042E-1
1.609104383E0,2.543836832E-3,8.819723129E-2,-1.534881592E-1,1.770419095E-1
1.614154956E0,-4.764842987E-2,6.075108051E-2,-1.949005127E-1,2.096360573E-1
1.619205581E0,-8.305826783E-2,1.499760151E-2,-2.431545258E-1,2.573863386E-1
1.624251570E0,-1.275198460E-1,5.085897446E-2,-2.340536118E-1,2.713467147E-1
1.629302143E0,-1.408767104E-1,-2.222967148E-2,-2.560071945E-1,2.930530489E-1
1.634352768E0,-1.546173990E-1,-4.911887646E-2,-2.897453308E-1,3.320716200E-1
1.639403393E0,-1.924420297E-1,-3.964436054E-2,-2.615308762E-1,3.271146730E-1
1.644453966E0,-2.111833096E-1,-8.448302746E-2,-2.288694382E-1,3.226716472E-1
1.649504539E0,-1.921064258E-1,-9.534192085E-2,-1.632890701E-1,2.695520008E-1
1.654550060E0,-1.973547339E-1,-6.058251858E-2,-1.363391876E-1,2.474015090E-1
1.659600685E0,-1.742609143E-1,-6.862878799E-2,-7.164955139E-2,2.005253974E-1
1.664651258E0,-1.276991665E-1,-5.746376514E-2,-2.890014648E-2,1.429838449E-1
1.669701883E0,-1.123916507E-1,-2.497255802E-2,2.299118042E-2,1.174057331E-1
1.674752508E0,-5.167707801E-2,-4.274618626E-2,3.410243988E-2,7.523784445E-2
1.679803081E0,-4.814791679E-2,-3.667747974E-2,3.326988220E-2,6.906768038E-2
1.684856935E0,-5.369967222E-2,-2.828598022E-2,9.898281097E-2,1.161092087E-1
1.689907560E0,-6.342327595E-2,-8.015632629E-4,3.112316132E-2,7.065271124E-2
1.694958133E0,-9.169307351E-2,-9.225726128E-3,3.512191772E-2,9.862191875E-2
1.700008706E0,-1.125697792E-1,-3.488898277E-3,1.056261063E-1,1.544053170E-1
1.705059331E0,-9.765300155E-2,-4.879355431E-3,4.725837708E-2,1.085968279E-1
1.710109956E0,-9.721636772E-2,5.516171455E-3,7.015609741E-2,1.200138671E-1
1.715154956E0,-4.441705346E-2,-1.041245461E-2,6.912803650E-2,8.282499188E-2
1.720205529E0,-1.818102598E-2,-4.293429852E-2,6.337261200E-2,7.867649996E-2
1.725256154E0,7.681906223E-3,-2.782917023E-2,1.967144012E-2,3.493479577E-2
1.730306779E0,2.605530620E-2,-2.715218067E-2,-7.036209106E-3,3.828352302E-2
1.735357404E0,1.320147514E-2,-1.934885979E-2,2.101898193E-3,2.351755296E-2
1.740407977E0,-2.577194571E-2,2.697229385E-3,-7.674121857E-2,8.099804232E-2
1.745472560E0,-1.229500771E-2,5.934000015E-3,-1.407318115E-1,1.413924409E-1
1.750523133E0,-3.239837289E-2,3.810429573E-2,-1.662502289E-1,1.736108595E-1
1.755573758E0,-2.656462789E-2,7.527494431E-2,-1.845149994E-1,2.010417412E-1
1.760624383E0,-3.782117367E-2,4.866862297E-2,-1.956090927E-1,2.050902074E-1
1.765674956E0,-4.878976941E-2,7.041049004E-2,-2.114334106E-1,2.281275210E-1
1.770725581E0,-4.991182685E-2,4.280614853E-2,-2.153291702E-1,2.251448608E-1
1.775769591E0,-4.306802154E-2,3.509926796E-2,-2.857522964E-1,2.911033975E-1
1.780820164E0,-7.814380527E-2,2.833139896E-2,-2.938919067E-1,3.054203256E-1
1.785870789E0,-1.102668047E-1,-1.526355743E-3,-2.758941650E-1,2.971172972E-1
1.790921414E0,-9.929054976E-2,4.326820374E-2,-2.723894119E-1,2.931326363E-1
1.795971987E0,-8.839842677E-2,3.127765656E-2,-3.497495651E-1,3.621012731E-1
1.801022612E0,-2.805760503E-2,2.246952057E-2,-3.695507050E-1,3.712948048E-1
1.806078445E0,-9.078472853E-3,7.157909870E-2,-3.085346222E-1,3.168589578E-1
1.811129018E0,6.148552895E-2,9.475314617E-2,-2.694959641E-1,2.922100334E-1
1.816179643E0,8.122444153E-2,1.040514708E-1,-2.094774246E-1,2.475982833E-1
1.821230216E0,9.549042583E-2,1.375989914E-1,-1.286592484E-1,2.111992094E-1
1.826280841E0,9.969380498E-2,1.330741644E-1,-2.479076385E-2,1.681135627E-1
1.831331414E0,1.082682014E-1,1.238956451E-1,-2.156734467E-2,1.659436189E-1
1.836373029E0,1.283083856E-1,1.337310076E-1,5.765819550E-2,1.940914519E-1
1.841423602E0,1.432738602E-1,1.646336317E-1,1.220083237E-1,2.500353230E-1
1.846474227E0,1.415467858E-1,1.426625252E-1,1.811323166E-1,2.705494498E-1
1.851524852E0,1.211093366E-1,1.298719645E-1,2.802362442E-1,3.317627935E-1
1.856575477E0,7.239595056E-2,1.332039833E-1,3.310928345E-1,3.641523580E-1
1.861626049E0,8.116716146E-2,1.407004595E-1,3.317193985E-1,3.693541481E-1
1.866680841E0,4.741054773E-2,1.663737297E-1,3.562068939E-1,3.959941025E-1
1.871731466E0,3.579649329E-2,1.720011234E-1,3.473577499E-1,3.892597871E-1
1.876782039E0,3.203526139E-2,1.862610579E-1,3.339576721E-1,3.837279849E-1
1.881832664E0,5.742987990E-2,1.639409065E-1,2.899141312E-1,3.379719151E-1
1.886883289E0,7.348120213E-2,1.459925175E-1,2.415685654E-1,2.916653459E-1
1.891933862E0,4.701533914E-2,1.491651535E-1,1.818141937E-1,2.398272007E-1
1.896987768E0,1.850578189E-2,1.472049952E-1,1.534881592E-1,2.134722220E-1
1.902038393E0,1.367899776E-2,1.475300789E-1,1.396522522E-1,2.036049869E-1
1.907088966E0,4.172486067E-2,1.595190763E-1,9.030532837E-2,1.879956171E-1
1.912139591E0,5.954101682E-2,1.475911140E-1,1.102495193E-1,1.936058526E-1
1.917190216E0,7.696148753E-2,1.475421190E-1,1.110267639E-1,2.000467189E-1
1.922240789E0,1.012088358E-1,1.260632277E-1,1.260519028E-1,2.049981659E-1
1.927294227E0,1.038858294E-1,1.283723116E-1,9.346008301E-2,1.897537959E-1
1.932344799E0,9.704023600E-2,1.018940210E-1,7.542419434E-2,1.596496415E-1
1.937395372E0,1.068405509E-1,7.801771164E-2,1.121768951E-1,1.734512106E-1
1.942446049E0,1.352798939E-1,5.672848225E-2,8.447360992E-2,1.692765818E-1
1.947496622E0,9.916287661E-2,7.606506348E-2,1.258811951E-1,1.773844561E-1
1.952547247E0,7.524678111E-2,8.332097530E-2,1.265678406E-1,1.691859369E-1
1.957600581E0,9.419071674E-2,1.118507385E-1,1.415071487E-1,2.034864909E-1
1.962651154E0,1.392239332E-1,9.722983837E-2,1.800994873E-1,2.475333723E-1
1.967701779E0,1.627008468E-1,4.933577776E-2,1.898899078E-1,2.548798964E-1
1.972752404E0,1.601170450E-1,4.196840525E-2,2.257680893E-1,2.799465043E-1
1.977802977E0,1.697712541E-1,5.088686943E-2,1.925144196E-1,2.616745191E-1
1.982853602E0,1.678632796E-1,1.186954975E-2,1.524648666E-1,2.270781857E-1
1.987890945E0,1.233947277E-1,2.275216579E-2,1.436710358E-1,1.907492763E-1
1.992941570E0,1.626792848E-1,3.087937832E-2,6.609916687E-2,1.782896115E-1
1.997992195E0,1.352617443E-1,3.203529119E-2,2.479171753E-2,1.411971267E-1
2.003042820E0,1.198249459E-1,9.334445000E-3,-1.379013062E-2,1.209765152E-1
2.008093393E0,9.497264028E-2,1.781302691E-2,-6.927490234E-3,9.687670747E-2
2.013143966E0,3.495451808E-2,1.941919327E-4,-6.188488007E-2,7.107456947E-2
2.018189487E0,1.576825976E-2,-2.420008183E-2,-6.414222717E-2,7.034562732E-2
2.023240060E0,1.430571079E-3,-8.624351025E-2,-4.501533508E-2,9.729527217E-2
2.028290685E0,-4.135650396E-2,-6.700569391E-2,-2.842426300E-2,8.371416943E-2
2.033341258E0,-2.942532301E-2,-6.461495161E-2,-7.848834991E-2,1.058364903E-1
2.038391883E0,-1.555052400E-2,-8.130878210E-2,-5.925083160E-2,1.018017578E-1
2.043442508E0,-2.329519391E-2,-8.372259140E-2,-1.138067245E-1,1.431925589E-1
2.048490997E0,-2.893140912E-2,-7.910388708E-2,-1.180219650E-1,1.449952951E-1
2.053541622E0,-2.284660935E-2,-1.171235442E-1,-1.055955887E-1,1.593434044E-1
2.058592299E0,-2.637627721E-2,-9.549421072E-2,-8.138847351E-2,1.282144138E-1
2.063642872E0,-6.447881460E-3,-1.025055647E-1,-1.096611023E-1,1.502482057E-1
2.068693549E0,2.745905519E-2,-1.022297740E-1,-1.115779877E-1,1.538004348E-1
2.073744174E0,1.594382524E-2,-6.870079041E-2,-6.596469879E-2,9.656782928E-2
2.078805060E0,2.839058638E-2,-4.726421833E-2,-4.923820496E-2,7.392112389E-2
2.083855685E0,4.378974438E-2,-2.596276999E-2,-8.726406097E-2,1.010278352E-1
2.088906310E0,5.281460285E-2,-4.031765461E-2,-1.178255081E-1,1.352691610E-1
2.093956987E0,1.730149984E-2,-4.479265213E-2,-1.718826294E-1,1.784638951E-1
2.099007612E0,1.807743311E-2,-7.272809744E-2,-2.159957886E-1,2.286270991E-1
2.104058237E0,1.166853309E-2,-5.240017176E-2,-2.479076385E-1,2.536535628E-1
2.109101987E0,1.920160651E-2,-1.747715473E-2,-2.582292557E-1,2.595313105E-1
2.114152612E0,2.610057592E-2,5.648553371E-3,-2.423839569E-1,2.438506280E-1
2.119203237E0,6.074279547E-3,2.809882164E-3,-2.504816055E-1,2.505710020E-1
2.124253862E0,-7.234483957E-3,5.211293697E-3,-2.205610275E-1,2.207411656E-1
2.129304487E0,1.463389397E-2,1.973158121E-2,-1.647968292E-1,1.666177694E-1
2.134355164E0,1.710841060E-2,3.661030531E-2,-1.000051498E-1,1.078612171E-1
2.139407977E0,1.667496562E-2,2.257758379E-2,-6.190681458E-2,6.797246103E-2
2.144458602E0,-5.249083042E-4,-7.912158966E-3,-2.650356293E-2,2.766435678E-2
2.149509227E0,-1.286491752E-2,4.278475046E-2,2.522468567E-2,5.130619594E-2
2.154559852E0,-2.250573039E-2,2.877008915E-2,1.716041565E-2,4.035722730E-2
2.159610529E0,-3.173726797E-2,9.921371937E-3,1.157474518E-2,3.520884158E-2
2.164661154E0,-2.388653159E-2,5.593121052E-3,-3.433799744E-2,4.220127323E-2
2.169681935E0,-1.107889712E-1,-1.758748293E-2,-1.059904099E-1,1.543291375E-1
2.174732560E0,-1.657306850E-1,-5.230259895E-2,-1.295270920E-1,2.167475245E-1
2.179783185E0,-1.441576183E-1,-6.994950771E-2,-1.457452774E-1,2.166011044E-1
2.184833862E0,-1.653200686E-1,-8.698344231E-2,-1.737270355E-1,2.551037577E-1
2.189884487E0,-2.122447491E-1,-1.007798314E-1,-1.920127869E-1,3.034358552E-1
2.194935112E0,-2.062237561E-1,-1.018654704E-1,-2.268085480E-1,3.230277528E-1
2.200018081E0,-2.048690319E-1,-9.017384052E-2,-2.138528824E-1,3.095734114E-1
2.205068706E0,-1.822210252E-1,-9.699112177E-2,-1.535272598E-1,2.572594007E-1
2.210119383E0,-1.766230762E-1,-6.724828482E-2,-1.127634048E-1,2.200764148E-1
2.215170008E0,-1.664966345E-1,-1.565694809E-2,-2.962017059E-2,1.698341068E-1
2.220220633E0,-1.284352243E-1,-2.110290527E-2,4.805278778E-2,1.387444048E-1
2.225271258E0,-1.052710712E-1,2.342742682E-2,1.084527969E-1,1.529472194E-1
2.230309539E0,-7.543620467E-2,3.656518459E-2,1.897487640E-1,2.074421055E-1
2.235360164E0,-3.670403361E-2,-4.588961601E-4,2.347488403E-1,2.376013777E-1
2.240410841E0,3.012317419E-2,-1.144796610E-2,2.817907333E-1,2.836273593E-1
2.245461414E0,4.884546995E-2,-1.340401173E-2,3.427448273E-1,3.464672626E-1
2.250512091E0,7.693722844E-2,-2.091002464E-2,3.604974747E-1,3.692086070E-1
2.255562716E0,7.198584080E-2,-5.524313450E-2,3.377933502E-1,3.497686559E-1
2.260618081E0,5.833283067E-2,-1.042416990E-1,3.391132355E-1,3.595369764E-1
2.265668706E0,4.555144906E-2,-1.013939977E-1,4.117708206E-1,4.265101241E-1
2.270719383E0,2.392503619E-2,-1.420383453E-1,3.556118011E-1,3.836757121E-1
2.275770008E0,8.476972580E-4,-1.331763268E-1,3.403797150E-1,3.655065019E-1
2.280820633E0,-8.317252994E-2,-1.179879606E-1,3.395948410E-1,3.690033667E-1
2.285871310E0,-1.420613229E-1,-1.416128576E-1,3.198776245E-1,3.775676305E-1
2.290919852E0,-1.692210734E-1,-1.396468282E-1,2.980060577E-1,3.700602907E-1
2.295970477E0,-2.052644491E-1,-1.360676587E-1,2.526197433E-1,3.527954599E-1
2.301021154E0,-1.816921532E-1,-1.426613331E-1,2.076444626E-1,3.106131313E-1
2.306071779E0,-1.774483323E-1,-1.404984891E-1,1.464557648E-1,2.695867710E-1
2.311122404E0,-1.497139335E-1,-1.222629249E-1,1.024265289E-1,2.187548365E-1
2.316173081E0,-1.394738853E-1,-1.165857613E-1,5.401802063E-2,1.896395290E-1
2.321222352E0,-1.035645604E-1,-1.303870678E-1,6.065845490E-2,1.772169681E-1
2.326272977E0,-6.336706877E-2,-9.693431854E-2,7.675838470E-2,1.389370258E-1
2.331323654E0,9.756028652E-3,-8.767077327E-2,1.196479797E-2,8.901966620E-2
2.336374279E0,3.270268440E-2,-9.046292305E-2,2.136993408E-2,9.853770901E-2
2.341424904E0,3.920075297E-2,-7.907944918E-2,-1.679325104E-2,8.984582125E-2
2.346475581E0,5.071485043E-2,-5.812805891E-2,-5.701065063E-2,9.592226839E-2
2.351527247E0,7.194694877E-2,-3.254997730E-2,-1.016330719E-1,1.287056555E-1
2.356577872E0,4.316505790E-2,-2.835854888E-2,-1.245107651E-1,1.347974782E-1
2.361628549E0,6.672796607E-2,2.108955383E-2,-1.210794449E-1,1.398485706E-1
2.366679174E0,1.087826490E-1,5.127561092E-2,-1.509542465E-1,1.930026879E-1
2.371729799E0,1.095850170E-1,6.009528041E-2,-1.473541260E-1,1.932189357E-1
2.376780477E0,1.337329745E-1,2.862617373E-2,-1.414318085E-1,1.967407501E-1
2.381814904E0,1.099142134E-1,6.419530511E-2,-1.165761948E-1,1.726041155E-1
2.386865529E0,8.129990101E-2,8.533969522E-2,-1.014451981E-1,1.555109825E-1
2.391916154E0,6.012004614E-2,8.520343900E-2,-1.030788422E-1,1.466263744E-1
2.396966779E0,3.669619560E-2,6.860226393E-2,-1.047077179E-1,1.304476430E-1
2.402017456E0,3.712323308E-2,6.402099133E-2,-8.732223511E-2,1.144639441E-1
2.407068081E0,1.604974270E-3,1.672217250E-2,-1.199789047E-1,1.211492657E-1
2.412128966E0,-2.215993404E-2,2.451118827E-2,-1.024961472E-1,1.076908594E-1
2.417179643E0,-1.030737162E-2,4.172664881E-2,-7.091236115E-2,8.292115589E-2
2.422230268E0,-1.787358522E-2,-1.479303837E-2,-5.860996246E-2,6.303512301E-2
2.427280893E0,7.505923510E-3,-6.971657276E-3,-4.166030884E-2,4.290133128E-2
2.432331570E0,8.598357439E-3,-3.976237774E-2,-1.101493835E-3,4.069633550E-2
2.437382195E0,2.160474658E-2,-5.101060867E-2,2.487468719E-2,6.072559045E-2
2.442435320E0,4.896682501E-2,-2.673745155E-2,5.777931213E-2,8.031867888E-2
2.447485945E0,1.217633784E-1,1.878648996E-3,1.070680618E-1,1.621524576E-1
2.452536622E0,1.159285009E-1,1.543223858E-3,1.108350754E-1,1.603939300E-1
2.457587247E0,6.543400884E-2,1.062244177E-3,1.430997849E-1,1.573540158E-1
2.462637872E0,6.809687614E-2,9.726077318E-3,1.418733597E-1,1.576700076E-1
2.467688549E0,3.562933207E-2,2.528980374E-2,1.335573196E-1,1.405225288E-1
2.472743862E0,2.755296230E-2,1.897725463E-2,1.776027679E-1,1.807264372E-1
2.477794487E0,1.984724402E-2,4.560002685E-2,1.666707993E-1,1.739322594E-1
2.482845164E0,1.494294405E-2,7.632979751E-2,8.459854126E-2,1.149192880E-1
2.487895789E0,5.304613709E-2,6.346666813E-2,2.462291718E-2,8.630294708E-2
2.492946466E0,6.722435355E-2,7.414409518E-2,-2.770614624E-2,1.038464785E-1
2.497997091E0,1.262625456E-1,7.739666104E-2,-8.197116852E-2,1.692682664E-1
2.503035008E0,1.417905688E-1,9.472963214E-2,-1.096563339E-1,2.027382060E-1
2.508085633E0,1.590612978E-1,9.519499540E-2,-1.632575989E-1,2.470134150E-1
2.513136310E0,2.068790495E-1,1.195856035E-1,-1.902961731E-1,3.054706061E-1
2.518186935E0,1.947281361E-1,8.213898540E-2,-1.957426071E-1,2.880642778E-1
2.523237560E0,1.964913160E-1,4.529303312E-2,-1.821689606E-1,2.717458855E-1
2.528288237E0,1.456875801E-1,4.968154430E-2,-1.521167755E-1,2.164085031E-1
2.533338445E0,9.733781219E-2,6.629541516E-2,-1.223459244E-1,1.698183057E-1
2.538389070E0,4.902547598E-2,7.110181451E-2,-1.166019440E-1,1.451033379E-1
2.543439747E0,-8.540779352E-3,5.955457687E-2,-1.085500717E-1,1.241080602E-1
2.548490372E0,-2.302438021E-2,1.743030548E-2,-1.029567719E-1,1.069300449E-1
2.553540997E0,-2.304136753E-2,-2.869278193E-3,-6.890392303E-2,7.271098943E-2
2.558591674E0,-4.888993502E-2,-1.572906971E-2,-8.263969421E-2,9.729824479E-2
2.563646674E0,-7.340610027E-4,-3.566774726E-2,-8.674907684E-2,9.379834419E-2
2.568697299E0,-1.897999644E-2,-6.252208352E-2,-6.705093384E-2,9.362200020E-2
2.573747924E0,-5.833745003E-3,-5.817249417E-2,-1.045179367E-1,1.197583849E-1
2.578798602E0,-4.036486149E-2,-3.480678797E-2,-1.107959747E-1,1.229495122E-1
2.583849227E0,-6.753861904E-2,-5.677515268E-2,-1.170234680E-1,1.465584358E-1
2.588899904E0,-4.734075069E-2,-6.430715322E-2,-9.708213806E-2,1.257040101E-1
2.593939487E0,-6.341230869E-2,-7.585972548E-3,-3.931999207E-2,7.499819764E-2
2.598990112E0,-5.131280422E-2,-5.971401930E-3,-2.006626129E-2,5.541945832E-2
2.604040737E0,-4.421979189E-2,-4.010558128E-2,-9.746551514E-4,5.970592598E-2
2.609091362E0,-1.707375050E-3,-4.327985644E-2,3.934001923E-2,5.851237661E-2
2.614141987E0,1.448261738E-2,-6.553003192E-2,3.894615173E-2,7.759338905E-2
2.619192664E0,3.085690737E-2,-6.182268262E-2,6.471443176E-2,9.466863523E-2
2.624260529E0,1.643016934E-2,-9.397751093E-2,8.553409576E-2,1.281319810E-1
2.629311154E0,-7.013767958E-3,-1.117696166E-1,7.531929016E-2,1.349616079E-1
2.634361831E0,-3.226640821E-2,-1.083401442E-1,7.234573364E-2,1.342110767E-1
2.639412456E0,-3.562229872E-2,-1.099573970E-1,2.428340912E-2,1.181069908E-1
2.644463081E0,-7.205986977E-2,-1.379612386E-1,5.146026611E-3,1.557318522E-1
2.649513758E0,-1.008106172E-1,-8.982279897E-2,-3.044605255E-2,1.384119860E-1
2.654562195E0,-9.870994091E-2,-9.683519602E-2,-6.337165833E-2,1.521074446E-1
2.659612820E0,-1.038616300E-1,-1.131911874E-1,-9.127998352E-2,1.786939240E-1
2.664663497E0,-8.294606209E-2,-1.032296717E-1,-1.427173615E-1,1.946911903E-1
2.669714122E0,-5.998808146E-2,-7.672426105E-2,-1.723527908E-1,1.979663271E-1
2.674764747E0,-3.484821320E-2,-8.803296089E-2,-1.827545166E-1,2.058237438E-1
2.679815424E0,1.869055629E-2,-9.180992842E-2,-1.788234711E-1,2.018817319E-1
2.684858029E0,-8.722394705E-3,-9.534305334E-2,-1.868000031E-1,2.099062151E-1
2.689908654E0,-4.302772880E-2,-9.578818083E-2,-2.137432098E-1,2.381447475E-1
2.694959331E0,-5.789336562E-2,-5.057975650E-2,-2.095928192E-1,2.232467322E-1
2.700009956E0,-9.422603250E-2,-6.699314713E-2,-2.078809738E-1,2.378678756E-1
2.705060581E0,-1.258702576E-1,-8.522853255E-2,-1.967134476E-1,2.486029062E-1
2.710111258E0,-1.173442304E-1,-8.390012383E-2,-1.429157257E-1,2.030610840E-1
2.715170060E0,-1.165436804E-1,-1.012761891E-1,-1.038522720E-1,1.860768399E-1
2.720220685E0,-1.209297180E-1,-9.461495280E-2,-7.463932037E-2,1.707249664E-1
2.725271362E0,-1.446062028E-1,-8.554100990E-2,-3.618335724E-2,1.718646375E-1
2.730321987E0,-6.826284528E-2,-7.897263765E-2,2.333641052E-2,1.069629917E-1
2.735372612E0,-9.296506643E-3,-9.395197034E-2,4.672908783E-2,1.053423249E-1
2.740423237E0,4.301697016E-3,-7.343596220E-2,8.420181274E-2,1.118091696E-1
2.745465789E0,-1.747557521E-2,-8.397084475E-2,1.380090714E-1,1.624900067E-1
2.750516414E0,-1.505804062E-2,-4.933166504E-2,1.581239700E-1,1.663236233E-1
2.755567039E0,-2.205866575E-2,-2.691051364E-2,1.448221207E-1,1.489436374E-1
2.760617664E0,-3.581488132E-2,-5.725032091E-2,1.625385284E-1,1.760087447E-1
2.765668341E0,-3.278285265E-2,-2.103936672E-2,1.539859772E-1,1.588365561E-1
2.770718966E0,-3.690993786E-2,2.774775028E-3,1.407623291E-1,1.455475049E-1
2.775778081E0,-1.719608903E-2,-2.850621939E-2,1.490402222E-1,1.527131227E-1
2.780828758E0,-1.423081756E-2,2.577206492E-2,1.216249466E-1,1.251372971E-1
2.785879383E0,-1.134762168E-2,1.756656170E-2,1.348295212E-1,1.364417546E-1
2.790930008E0,-4.055529833E-3,2.035349607E-3,1.384172440E-1,1.384916004E-1
2.795980633E0,2.176108956E-2,4.813459516E-2,1.514682770E-1,1.604154706E-1
2.801031310E0,1.151725650E-2,7.927909493E-2,1.002721786E-1,1.283445827E-1
2.806072768E0,4.184457660E-2,5.520862341E-2,1.065311432E-1,1.270741719E-1
2.811123393E0,6.727150083E-2,6.676381826E-2,1.056232452E-1,1.419124103E-1
2.816174070E0,5.927935243E-2,1.041427255E-1,5.484676361E-2,1.317873908E-1
2.821224695E0,1.250457466E-1,1.505535841E-1,5.201148987E-2,2.025043592E-1
2.826275320E0,1.641383469E-1,1.539292932E-1,4.444408417E-2,2.293706625E-1
2.831325945E0,1.791117787E-1,1.430418193E-1,1.318359375E-2,2.295992128E-1
2.836383654E0,1.774429381E-1,1.846203804E-1,-8.314132690E-3,2.562026658E-1
2.841434279E0,1.688272059E-1,1.666839719E-1,-8.253097534E-3,2.373905760E-1
2.846484956E0,1.315303147E-1,1.232536435E-1,-1.059627533E-2,1.805656816E-1
2.851535581E0,8.710998297E-2,1.351945400E-1,-1.067161560E-3,1.608317494E-1
2.856586206E0,2.137586474E-2,1.138415933E-1,3.924846649E-2,1.222999512E-1
2.861636883E0,-1.355126500E-2,5.735102296E-2,6.731414795E-2,8.946491565E-2
2.866692195E0,-1.094311476E-3,2.039131522E-2,8.800029755E-2,9.033856110E-2
2.871742820E0,-5.573630333E-3,1.700004935E-2,1.346378326E-1,1.358212539E-1
2.876793497E0,-4.332938790E-2,-1.761475205E-2,1.215076447E-1,1.301991669E-1
2.881844122E0,-6.636452675E-2,-3.557774425E-2,1.536388397E-1,1.710991507E-1
2.886894747E0,-5.073121190E-2,-4.668432474E-2,1.831598282E-1,1.957054028E-1
2.891945424E0,-7.741895318E-2,-4.624491930E-2,2.005958557E-1,2.199340451E-1
2.896993185E0,-7.971444726E-2,-4.612678289E-2,2.012853622E-1,2.213546256E-1
2.902043810E0,-1.032125056E-1,-3.687128425E-2,2.019872665E-1,2.298068075E-1
2.907094435E0,-7.657983899E-2,-3.978401423E-2,1.836891174E-1,2.029505639E-1
2.912145112E0,-5.460661650E-2,-4.768580198E-3,1.631841660E-1,1.721443985E-1
2.917195737E0,-6.808719039E-2,-1.043346524E-2,1.666212082E-1,1.802979471E-1
2.922246414E0,-5.712848902E-2,-8.981227875E-3,9.166145325E-2,1.083796509E-1
2.927286831E0,-4.801756144E-2,-3.119662404E-2,3.635501862E-2,6.782774459E-2
2.932337456E0,-3.365686536E-2,-2.921634912E-2,7.654190063E-3,4.522130325E-2
2.937388081E0,-5.267694592E-2,-6.722280383E-2,-1.844406128E-2,8.737247498E-2
2.942438758E0,-7.877337933E-2,-4.526716471E-2,-6.334400177E-2,1.107556953E-1
2.947489383E0,-1.123054624E-1,-5.158725381E-2,-1.079044342E-1,1.640644037E-1
2.952540008E0,-1.128252745E-1,-3.621581197E-2,-6.898021698E-2,1.371108965E-1
2.957580945E0,-1.018336117E-1,-4.452505708E-2,-4.228115082E-2,1.189128290E-1
2.962631570E0,-9.146222472E-2,-5.499115586E-2,1.029777527E-2,1.072166496E-1
2.967682195E0,-4.813045263E-2,-1.321509480E-2,5.768299103E-2,7.627913643E-2
2.972732820E0,-3.598764539E-2,-5.978432298E-2,1.070556641E-1,1.277896361E-1
2.977783445E0,-4.538333416E-2,-5.629497766E-2,1.227626801E-1,1.424761283E-1
2.982834122E0,-4.713296890E-3,-3.414854407E-2,1.359786987E-1,1.402802364E-1
2.987884747E0,4.943281412E-3,-7.199567556E-2,1.182260513E-1,1.385106947E-1
2.992990320E0,1.953607798E-2,-2.918341756E-2,1.006469727E-1,1.065980455E-1
2.998040945E0,-1.262009144E-3,-3.767073154E-3,6.661510468E-2,6.673346745E-2
3.003091570E0,-4.582703114E-4,-4.064500332E-2,8.039093018E-2,9.008289494E-2
3.008142247E0,4.537105560E-2,-3.833383322E-3,2.754020691E-2,5.321363087E-2
3.013192872E0,3.850591183E-2,2.755647898E-2,-3.198623657E-2,5.714178952E-2
3.018243497E0,5.529439449E-2,4.205372930E-2,-4.588794708E-2,8.325677088E-2
3.023252039E0,4.813498259E-2,4.452103376E-2,-6.680011749E-2,9.360210838E-2
3.028302664E0,8.179605007E-2,6.813138723E-2,-9.464073181E-2,1.424406819E-1
3.033353341E0,8.925637603E-2,6.800124049E-2,-1.317491531E-1,1.730569523E-1
3.038403966E0,2.528899908E-2,3.958192468E-2,-1.828126907E-1,1.887504758E-1
3.043454591E0,3.281241655E-2,3.558009863E-2,-1.527109146E-1,1.601974455E-1
3.048505216E0,2.349105477E-2,1.070696115E-2,-1.490135193E-1,1.512332556E-1
3.053559643E0,1.393944025E-2,2.442216873E-2,-1.287450790E-1,1.317802933E-1
3.058610268E0,1.608547568E-2,5.264478922E-2,-1.015424728E-1,1.155036370E-1
3.063660893E0,4.063069820E-3,5.729261041E-2,-8.407974243E-2,1.018251189E-1
3.068711518E0,-7.493346930E-3,4.331538081E-2,-3.588008881E-2,5.674286947E-2
3.073762143E0,-4.440873861E-3,6.297111511E-2,-5.934619904E-2,8.664325732E-2
3.078812820E0,-2.501246333E-2,2.798235416E-2,-4.223060608E-2,5.649831463E-2
3.083866310E0,-5.966731906E-2,5.024409294E-2,-6.563949585E-2,1.019470512E-1
3.088916935E0,-8.485245705E-2,4.142841697E-2,-3.660583496E-2,1.012730979E-1
3.093967612E0,-7.941961288E-2,3.965139389E-2,-2.683258057E-2,9.273454226E-2
3.099018237E0,-6.959250569E-2,1.862594485E-2,-2.664756775E-2,7.681233975E-2
3.104068810E0,-5.050554872E-2,3.309071064E-2,-2.705574036E-3,6.044109291E-2
3.109119487E0,-6.493780017E-2,2.822402120E-2,1.628875732E-2,7.265560459E-2
3.114169070E0,-1.769465208E-2,3.971320391E-2,3.750324249E-2,5.741717926E-2
3.119219643E0,-1.830762625E-2,2.460548282E-2,3.242397308E-2,4.463085249E-2
3.124270320E0,1.202055812E-2,2.842128277E-2,8.393287659E-3,3.197984380E-2
3.129320945E0,3.027415276E-2,2.012330294E-2,6.058979034E-2,7.065829279E-2
3.134371570E0,4.605409503E-2,1.897108555E-2,6.721973419E-2,8.366226402E-2
3.139422247E0,3.578242660E-2,1.999723911E-2,8.093833923E-2,9.072643707E-2
3.144454799E0,8.972585201E-3,2.820232511E-2,3.515243530E-2,4.595184582E-2
3.149505424E0,3.716051579E-3,1.743972301E-2,1.112174988E-2,2.101538243E-2
3.154556102E0,-1.099693775E-2,-9.859710932E-3,1.342296600E-2,1.995801984E-2
3.159606727E0,2.662223577E-2,3.400266171E-3,6.559085846E-2,7.086935841E-2
3.164657299E0,1.904824376E-2,-4.036548734E-2,6.269454956E-2,7.695982525E-2
3.169707924E0,1.163995266E-2,-4.333242774E-2,2.656745911E-2,5.214420078E-2
3.174769122E0,4.018419981E-2,-8.191424608E-2,6.201934814E-2,1.103227681E-1
3.179819747E0,3.792572021E-2,-7.017722726E-2,1.879215240E-2,8.195333106E-2
3.184870372E0,3.162324429E-4,-7.041350007E-2,-7.434844971E-3,7.080563477E-2
3.189920997E0,3.446966410E-3,-4.442372918E-2,1.644229889E-2,4.749419422E-2
3.194971622E0,2.064615488E-2,-4.483604431E-2,2.823734283E-2,5.686723232E-2
3.200022299E0,-9.653896093E-3,-7.290899754E-3,3.281688690E-2,3.497574867E-2
3.205077352E0,-3.965049982E-3,3.928348422E-2,6.485939026E-3,4.001226261E-2
3.210127977E0,-5.358129740E-3,4.971924424E-2,1.364135742E-2,5.183434609E-2
3.215178602E0,2.440163493E-2,6.930646300E-2,-4.338169098E-2,8.532758472E-2
3.220229227E0,3.506946564E-2,9.565252066E-2,-9.753894806E-2,1.410429669E-1
3.225279852E0,4.332667589E-2,6.941497326E-2,-1.749925613E-1,1.931787666E-1
3.230330529E0,7.982197404E-2,4.805436730E-2,-1.829156876E-1,2.052776620E-1
3.235380529E0,1.302214563E-1,6.251454353E-2,-2.097787857E-1,2.547014620E-1
3.240431154E0,1.586801708E-1,5.316975713E-2,-2.197971344E-1,2.762556786E-1
3.245481779E0,1.393585801E-1,2.750632167E-2,-2.059879303E-1,2.502167840E-1
3.250532404E0,1.465055346E-1,-2.357631922E-3,-1.875467300E-1,2.379983321E-1
3.255583029E0,7.511588931E-2,-5.069270730E-2,-1.811513901E-1,2.025536312E-1
3.260633706E0,3.035759926E-2,-5.063274503E-2,-1.677055359E-1,1.777931536E-1
3.265700581E0,-3.065136075E-2,-4.302650690E-2,-1.543874741E-1,1.631756059E-1
3.270751206E0,-1.007639766E-1,-1.088145077E-1,-1.316967010E-1,1.983380880E-1
3.275801831E0,-1.394146383E-1,-1.192126274E-1,-9.257221222E-2,2.054694780E-1
3.280852508E0,-1.803437471E-1,-1.008795500E-1,-8.704662323E-2,2.242268168E-1
3.285903133E0,-1.995238662E-1,-1.136092842E-1,-4.355621338E-2,2.336963550E-1
3.290953758E0,-1.809186339E-1,-1.311616898E-1,-3.131961823E-2,2.256454286E-1
3.295985164E0,-2.077765465E-1,-1.084643304E-1,2.357673645E-2,2.355662683E-1
3.301035789E0,-1.608323455E-1,-8.871030807E-2,-2.741813660E-3,1.836956169E-1
3.306086414E0,-1.357212067E-1,-9.562897682E-2,-1.932716370E-2,1.671486955E-1
3.311137039E0,-9.424859285E-2,-1.172199845E-1,1.412773132E-2,1.510725482E-1
3.316187664E0,-1.005300581E-1,-1.034177840E-1,-1.206398010E-2,1.447310273E-1
3.321238289E0,-7.102575898E-2,-1.066251099E-1,-5.940437317E-2,1.412177470E-1
3.326310477E0,-3.721925616E-2,-9.090608358E-2,-1.111049652E-1,1.483020646E-1
3.331361102E0,-2.522280812E-2,-4.668989778E-2,-1.338787079E-1,1.440126558E-1
3.336411727E0,8.059382439E-3,-6.454658508E-2,-1.255836487E-1,1.414300820E-1
3.341462404E0,1.731881499E-2,-8.657610416E-2,-1.506309509E-1,1.745996751E-1
3.346513029E0,4.076224566E-2,-6.513127685E-2,-1.659870148E-1,1.829079904E-1
3.351563654E0,2.094390988E-2,-6.213232875E-2,-1.432485580E-1,1.575411788E-1
3.356603289E0,-3.771305084E-3,-7.025611401E-2,-1.064920425E-1,1.276350243E-1
3.361653914E0,-2.854871750E-2,-6.813794374E-2,-6.057548523E-2,9.553637035E-2
3.366704539E0,-4.609909654E-2,-9.629648924E-2,1.343727112E-2,1.076043716E-1
3.371755216E0,-1.351854205E-2,-7.402843237E-2,7.494926453E-2,1.062090016E-1
3.376805841E0,-1.179024577E-2,-4.457283020E-2,1.098222733E-1,1.191078452E-1
3.381856414E0,-2.187490463E-4,-5.307015777E-2,1.277828217E-1,1.383652377E-1
3.386909227E0,3.051394224E-2,-3.785336018E-2,1.028509140E-1,1.137641774E-1
3.391959852E0,3.258129954E-2,-2.045041323E-2,1.208944321E-1,1.268669547E-1
3.397010477E0,8.467271924E-2,-5.328932405E-2,1.744356155E-1,2.010895457E-1
3.402061154E0,9.579175711E-2,-4.335275292E-2,1.633939743E-1,1.943016026E-1
3.407111779E0,1.112621129E-1,6.475448608E-3,1.524448395E-1,1.888401924E-1
3.412162404E0,1.312540770E-1,8.017659187E-3,1.653509140E-1,2.112648583E-1
3.417208133E0,1.393623650E-1,-1.229831576E-2,1.686716080E-1,2.191420286E-1
3.422258758E0,1.214824617E-1,2.874872088E-2,1.292333603E-1,1.796823276E-1
3.427309383E0,1.467758119E-1,2.385362983E-2,1.257858276E-1,1.947670636E-1
3.432360060E0,9.827432036E-2,4.283487797E-3,6.537246704E-2,1.181090587E-1
3.437410685E0,8.090779185E-2,1.756682992E-2,5.061054230E-2,9.703654614E-2
3.442461258E0,8.728471398E-2,1.136982441E-2,2.885055542E-2,9.262963214E-2
3.447506622E0,1.273956895E-2,-2.052605152E-3,-3.548622131E-2,3.775952473E-2
3.452557247E0,4.307991266E-2,2.718862891E-2,-8.266353607E-2,9.709974569E-2
3.457607872E0,3.019890189E-2,2.530434728E-2,-7.006645203E-2,8.038402432E-2
3.462658497E0,1.468062401E-2,2.813014388E-2,-7.659339905E-2,8.290581701E-2
3.467709122E0,1.613080502E-3,4.291236401E-2,-6.644344330E-2,7.911260437E-2
3.472759747E0,-4.465904832E-2,3.644803166E-2,-1.015224457E-1,1.167462915E-1
3.477815424E0,-4.779464006E-2,9.200012684E-2,-9.118270874E-2,1.380675100E-1
3.482866102E0,-3.174981475E-2,8.330711722E-2,-6.193065643E-2,1.085519817E-1
3.487916727E0,-3.252732754E-2,6.548839808E-2,-8.519649506E-2,1.122728823E-1
3.492967352E0,2.602636814E-2,8.132299781E-2,-9.640502930E-2,1.287817203E-1
3.498017977E0,7.474452257E-2,9.496107697E-2,-5.763626099E-2,1.338890898E-1
3.503068654E0,1.159319282E-1,1.017265320E-1,-3.108119965E-2,1.573357564E-1
3.508104279E0,1.165507734E-1,8.969035745E-2,-2.850627899E-2,1.498033743E-1
3.513154904E0,1.600395739E-1,6.378009915E-2,3.105449677E-2,1.750569851E-1
3.518205477E0,1.603637636E-1,8.359760046E-2,4.496860504E-2,1.863525447E-1
3.523256154E0,1.535179317E-1,7.961258292E-2,8.964347839E-2,1.947867345E-1
3.528306779E0,1.466343701E-1,8.987313509E-2,1.054372787E-1,2.017320962E-1
3.533357404E0,1.421391070E-1,4.784753919E-2,1.448507309E-1,2.085057481E-1
3.538421362E0,1.591186076E-1,1.553031802E-2,1.958217621E-1,2.527965280E-1
3.543471987E0,1.214873195E-1,4.029420018E-2,2.677631378E-1,2.967825624E-1
3.548522612E0,1.177980304E-1,3.371542692E-2,2.654876709E-1,2.923983744E-1
3.553573289E0,7.175090909E-2,1.020386815E-2,2.466306686E-1,2.570583564E-1
3.558623914E0,4.282638431E-2,1.255568862E-2,2.612094879E-1,2.649946058E-1
3.563674539E0,5.716383457E-2,7.395654917E-3,2.638130188E-1,2.700364949E-1
3.568727664E0,5.501475930E-2,1.606109738E-2,2.189111710E-1,2.262889378E-1
3.573778289E0,6.017062068E-2,2.196988463E-2,1.839046478E-1,1.947411074E-1
3.578828914E0,5.604484677E-2,2.762240171E-2,1.492080688E-1,1.617623867E-1
3.583879591E0,-2.054870129E-4,4.405468702E-3,1.076908112E-1,1.077810799E-1
3.588930216E0,-2.035182714E-2,-2.341917157E-2,4.038906097E-2,5.093064609E-2
3.593980841E0,-4.048499465E-2,-3.443318605E-2,2.115631104E-2,5.720374630E-2
3.599029852E0,-7.000893354E-2,-2.160379291E-2,-1.692199707E-2,7.519526999E-2
3.604080477E0,-4.707875848E-2,-2.788814902E-2,-8.081722260E-2,9.759908721E-2
3.609131102E0,-3.864708543E-2,-1.015764475E-2,-1.038036346E-1,1.112293555E-1
3.614181779E0,-5.388227105E-2,-1.859882474E-2,-1.028413773E-1,1.175821598E-1
3.619232352E0,-7.105839252E-2,-5.289790034E-2,-1.422653198E-1,1.675914802E-1
3.624282977E0,-8.101120591E-2,-1.548126340E-2,-1.789932251E-1,1.970813528E-1
3.629327872E0,-8.871605992E-2,-1.374712586E-2,-1.726722717E-1,1.946156114E-1
3.634378497E0,-1.321974695E-1,-4.032549262E-2,-1.402912140E-1,1.969363882E-1
3.639429122E0,-1.254866421E-1,-1.163142920E-2,-1.604595184E-1,2.040329497E-1
3.644479747E0,-1.262816489E-1,-9.109735489E-3,-1.686019897E-1,2.108475114E-1
3.649530372E0,-1.009972692E-1,-4.214450717E-2,-1.671819687E-1,1.998159616E-1
3.654580997E0,-6.890547276E-2,-5.861341953E-3,-1.752862930E-1,1.884346147E-1
3.659626310E0,-9.162056446E-2,-5.416512489E-3,-1.856975555E-1,2.071406493E-1
3.664676935E0,-3.580930829E-2,-2.134743333E-2,-1.366462708E-1,1.428643510E-1
3.669727508E0,-9.176433086E-3,-3.228792548E-2,-1.664094925E-1,1.697611152E-1
3.674778185E0,2.931028605E-3,-2.882966399E-2,-1.531677246E-1,1.558848688E-1
3.679828810E0,-1.839876175E-3,1.762944460E-2,-1.400547028E-1,1.411718889E-1
3.684879435E0,-4.715996981E-2,-1.943790913E-2,-8.192348480E-2,9.650571188E-2
3.689931727E0,-6.126880646E-2,-2.525728941E-2,-4.091167450E-2,7.788172073E-2
3.694982352E0,-8.487036824E-2,9.403109550E-3,-3.587913513E-2,9.262132699E-2
3.700032977E0,-1.201491952E-1,-4.891887307E-2,-2.851104736E-2,1.328223064E-1
3.705083602E0,-1.243079901E-1,-5.945733190E-2,-2.832508087E-2,1.406767960E-1
3.710134227E0,-1.215682626E-1,-5.597001314E-2,-6.761550903E-3,1.340044903E-1
3.715184852E0,-1.354858875E-1,-7.880610228E-2,7.502555847E-3,1.569175447E-1
3.720250216E0,-1.279715598E-1,-8.018699288E-2,2.164745331E-2,1.525624009E-1
3.725300841E0,-1.155636609E-1,-8.177292347E-2,3.094005585E-2,1.449105165E-1
3.730351466E0,-1.077084839E-1,-6.926292181E-2,4.543304443E-3,1.281370808E-1
3.735402143E0,-1.092720628E-1,-5.702301860E-2,-4.993438721E-3,1.233569730E-1
3.740452768E0,-7.735824585E-2,-5.444180965E-2,-4.294586182E-2,1.038872268E-1
3.745503393E0,-5.285018682E-2,-3.748887777E-2,-4.257869720E-2,7.753388717E-2
3.750547977E0,-2.627700567E-3,-4.105120897E-3,-4.934787750E-2,4.958800099E-2
3.755598602E0,6.142559648E-2,2.904766798E-2,-6.081485748E-2,9.118836443E-2
3.760649227E0,1.058923900E-1,5.247899890E-2,-1.054468155E-1,1.583864719E-1
3.765699904E0,1.689538956E-1,5.925923586E-2,-1.188335419E-1,2.148918019E-1
3.770750529E0,1.842047423E-1,7.581898570E-2,-1.226091385E-1,2.339079018E-1
3.775801154E0,1.708892882E-1,7.362002134E-2,-8.597850800E-2,2.049764869E-1
3.780852768E0,1.528948247E-1,5.265989900E-2,-8.529663086E-2,1.828261678E-1
3.785903393E0,1.063484848E-1,4.872757196E-2,-3.000068665E-2,1.207659624E-1
3.790954018E0,6.944087148E-2,9.503844380E-2,3.432273865E-3,1.177544943E-1
3.796004695E0,3.268620372E-2,4.615262151E-2,7.220554352E-2,9.171746235E-2
3.801055268E0,1.307314634E-2,3.314858675E-2,4.302406311E-2,5.586417426E-2
3.806105945E0,-2.749952674E-2,3.444951773E-2,7.348728180E-2,8.569348767E-2
3.811142768E0,-1.057058573E-2,1.656827331E-2,1.084604263E-1,1.102266258E-1
3.816193393E0,2.062147856E-2,-1.557645202E-2,1.217746735E-1,1.244867155E-1
3.821243966E0,1.661747694E-3,-1.678663492E-2,1.136064529E-1,1.148519859E-1
3.826294643E0,-2.436906099E-2,-1.834943891E-2,7.225608826E-2,7.843146902E-2
3.831345268E0,-4.068082571E-2,-2.253550291E-2,8.352184296E-2,9.559642631E-2
3.836395893E0,-3.083553910E-2,1.823306084E-2,8.994579315E-2,9.681694420E-2
3.841444591E0,7.432311773E-3,-1.519072056E-2,6.306552887E-2,6.529363048E-2
3.846495216E0,4.289591312E-2,2.509012818E-2,7.204627991E-2,8.752279899E-2
3.851545841E0,3.070789576E-2,1.256245375E-2,1.094722748E-1,1.143895496E-1
3.856596466E0,8.777105808E-2,-1.654404402E-2,7.295799255E-2,1.153270684E-1
3.861647091E0,1.088785827E-1,-2.252161503E-4,1.317739487E-1,1.709355728E-1
3.866697716E0,1.417456269E-1,2.071553469E-2,9.745597839E-2,1.732588349E-1
3.871782143E0,1.340124905E-1,4.142853618E-2,9.431076050E-2,1.690271894E-1
3.876832768E0,9.799757600E-2,3.590255976E-2,7.219219208E-2,1.269024479E-1
3.881883445E0,5.542096496E-2,8.031347394E-2,9.065341949E-2,1.331907651E-1
3.886934070E0,3.209909797E-2,9.827557206E-2,1.517143250E-1,1.835910579E-1
3.891984695E0,1.634448767E-3,1.466543972E-1,1.148719788E-1,1.862948071E-1
3.897035320E0,-1.210969687E-2,1.491746604E-1,9.972000122E-2,1.798438287E-1
3.902068706E0,-2.303540707E-3,1.299784184E-1,1.108226776E-1,1.708255292E-1
3.907119331E0,2.895045280E-2,1.246070564E-1,6.722450256E-2,1.445136013E-1
3.912169956E0,4.812037945E-2,1.282103956E-1,1.213741302E-2,1.374801558E-1
3.917220633E0,4.580289125E-2,1.361691654E-1,-2.347087860E-2,1.455706996E-1
3.922271258E0,8.626621962E-2,1.413229704E-1,-8.014774323E-2,1.839502741E-1
3.927321883E0,9.530934691E-2,1.390554905E-1,-9.121417999E-2,1.916776661E-1
3.932367924E0,1.067627668E-1,1.603639722E-1,-1.045513153E-1,2.191936803E-1
3.937418549E0,8.936387300E-2,1.578001976E-1,-1.201629639E-1,2.175452644E-1
3.942469174E0,1.050105095E-1,1.458173990E-1,-1.451625824E-1,2.310023729E-1
3.947519852E0,8.944267035E-2,1.626046002E-1,-1.557140350E-1,2.422542218E-1
3.952570477E0,7.385271788E-2,1.295271516E-1,-1.305570602E-1,1.981833820E-1
3.957621102E0,8.912712336E-2,1.090298891E-1,-1.341381073E-1,1.944844278E-1
3.962682091E0,1.468803883E-1,1.199502349E-1,-1.068277359E-1,2.176558579E-1
3.967732716E0,1.257663369E-1,1.479395032E-1,-1.035213470E-1,2.200453076E-1
3.972783341E0,1.148046851E-1,1.049554646E-1,-1.049947739E-1,1.876690380E-1
3.977834018E0,1.184553802E-1,1.364473403E-1,-8.983516693E-2,2.017917515E-1
3.982884643E0,8.665367961E-2,1.372140944E-1,-7.481098175E-2,1.786987714E-1
3.987935216E0,2.217486501E-2,1.312673390E-1,-5.041313171E-2,1.423528109E-1
3.992973237E0,5.749970675E-3,1.042051017E-1,-3.335475922E-2,1.095641609E-1
3.998023862E0,2.024075389E-2,7.995298505E-2,-3.308105469E-2,8.886238864E-2
4.003074487E0,-2.002876997E-2,8.926260471E-2,-3.281402588E-2,9.718911730E-2
4.008125112E0,-3.206044436E-3,8.187031746E-2,-6.428718567E-3,8.218488927E-2
4.013175737E0,3.826886415E-3,5.068889260E-2,2.686119080E-2,5.749376022E-2
4.018226362E0,-6.764140725E-2,1.248648763E-2,4.562377930E-2,8.253969703E-2
4.023283029E0,-5.531838536E-2,7.703691721E-3,3.335762024E-2,6.505537221E-2
4.028333654E0,-4.056364298E-2,-2.105319500E-2,6.872177124E-2,8.253076998E-2
4.033384279E0,-6.362307072E-2,-3.077012300E-2,6.580543518E-2,9.656630311E-2
4.038434904E0,-6.025284529E-2,-3.580904007E-2,4.867172241E-2,8.533246322E-2
4.043485529E0,-8.061158657E-2,-3.858438134E-2,3.406524658E-2,9.564216328E-2
4.048536154E0,-6.997075677E-2,-6.514388323E-2,2.908229828E-2,9.992703537E-2
4.053593602E0,-1.164218783E-1,-7.711616158E-2,5.264377594E-2,1.492391479E-1
4.058644227E0,-1.316566169E-1,-9.606185555E-2,2.611732483E-2,1.650559285E-1
4.063694852E0,-1.184712052E-1,-1.171250045E-1,2.175331116E-3,1.666085989E-1
4.068745477E0,-1.791917384E-1,-1.331547201E-1,2.118015289E-2,2.242508806E-1
4.073796154E0,-2.085788250E-1,-1.417696476E-1,1.388645172E-2,2.525798740E-1
4.078846779E0,-2.449567020E-1,-1.953999549E-1,2.565097809E-2,3.143929085E-1
4.083884904E0,-2.240319252E-1,-2.033048868E-1,3.731155396E-2,3.048201643E-1
4.088935529E0,-2.411408722E-1,-2.205483913E-1,4.650020599E-2,3.300799636E-1
4.093986206E0,-2.533675730E-1,-2.471093684E-1,3.898334503E-2,3.560587988E-1
4.099036831E0,-1.988343298E-1,-2.543539703E-1,7.429027557E-2,3.312854931E-1
4.104087456E0,-2.086453140E-1,-2.329910398E-1,7.367992401E-2,3.213198140E-1
4.109138133E0,-2.321256995E-1,-2.404378206E-1,6.835174561E-2,3.411226276E-1
4.114189279E0,-2.217525840E-1,-2.406625301E-1,3.932857513E-2,3.296049130E-1
4.119239904E0,-2.393634021E-1,-2.030001432E-1,2.958583832E-2,3.152446958E-1
4.124290581E0,-2.494569123E-1,-1.943862140E-1,5.691528320E-3,3.163022997E-1
4.129341206E0,-2.145045996E-1,-1.290595829E-1,-3.746986389E-3,2.503650117E-1
4.134391831E0,-1.893625855E-1,-9.063702822E-2,-5.585861206E-2,2.172405216E-1
4.139442456E0,-1.407898366E-1,-1.051745713E-1,-8.614444733E-2,1.957149313E-1
4.144537664E0,-8.574858308E-2,-9.590536356E-2,-7.342720032E-2,1.481290384E-1
4.149588237E0,-5.504214764E-2,-5.133429170E-2,-1.415786743E-1,1.603414124E-1
4.154638914E0,-8.063226938E-3,-4.529494047E-2,-2.139120102E-1,2.188035543E-1
4.159689539E0,3.362038732E-2,3.406643867E-3,-1.930017471E-1,1.959377709E-1
4.164740216E0,-8.337676525E-3,3.771758080E-2,-1.675329208E-1,1.719285093E-1
4.169790841E0,-1.689320803E-2,3.854227066E-2,-1.897993088E-1,1.944084996E-1
4.174808445E0,1.252144575E-2,5.847612023E-2,-2.142639160E-1,2.224528466E-1
4.179859070E0,4.856604338E-2,6.662458181E-2,-2.290458679E-1,2.434327527E-1
4.184909695E0,7.955890894E-2,7.976898551E-2,-2.318401337E-1,2.577645410E-1
4.189960320E0,3.660166264E-2,8.604454994E-2,-2.156248093E-1,2.350263914E-1
4.195010997E0,3.423443437E-2,7.358109951E-2,-2.114429474E-1,2.264824380E-1
4.200061622E0,5.553808808E-2,7.811063528E-2,-1.883077621E-1,2.112949688E-1
4.205094799E0,4.083368182E-2,5.906581879E-2,-1.962671280E-1,2.089903013E-1
4.210145424E0,7.846382260E-2,2.149236202E-2,-2.017984390E-1,2.175801073E-1
4.215196102E0,8.723068237E-2,-1.244455576E-3,-1.360311508E-1,1.616020254E-1
4.220246674E0,7.698315382E-2,1.691707969E-2,-1.207084656E-1,1.441635433E-1
4.225297352E0,6.919664145E-2,1.385959983E-2,-9.127426147E-2,1.153744101E-1
4.230347977E0,5.905398726E-2,-3.314137459E-3,-5.733966827E-2,8.237836170E-2
4.235392924E0,3.968954086E-3,-1.786249876E-2,-7.058143616E-3,1.961221175E-2
4.240443602E0,-1.513007283E-2,-5.898714066E-3,4.753971100E-2,5.023681970E-2
4.245494227E0,-3.644543886E-2,-3.204315901E-2,6.604957581E-2,8.196084746E-2
4.250544852E0,-5.061897635E-2,-5.322605371E-2,1.129064560E-1,1.346965529E-1
4.255595529E0,-2.667826414E-2,-3.877031803E-2,1.166181564E-1,1.257563587E-1
4.260646154E0,-4.591310024E-2,-3.880223632E-2,1.868095398E-1,1.962432941E-1
4.265707664E0,-1.738584042E-2,-2.722749114E-2,2.065458298E-1,2.090568906E-1
4.270758289E0,1.818338037E-2,-6.110113859E-2,1.786231995E-1,1.896581974E-1
4.275808966E0,3.243705630E-2,-9.438276291E-3,2.198514938E-1,2.224318390E-1
4.280859591E0,7.776051760E-2,-1.321524382E-2,2.251329422E-1,2.385501675E-1
4.285910216E0,1.015330255E-1,-1.252454519E-2,1.876335144E-1,2.137104472E-1
4.290960841E0,9.897676110E-2,2.606490254E-2,1.813316345E-1,2.082232938E-1
4.296012612E0,1.104867756E-1,6.644794345E-2,2.130908966E-1,2.490590030E-1
4.301063237E0,1.121441424E-1,4.437324405E-2,1.899499893E-1,2.250028709E-1
4.306113914E0,1.397682428E-1,8.177429438E-2,1.646232605E-1,2.309177664E-1
4.311164539E0,1.599894166E-1,1.019296944E-1,1.228885651E-1,2.260262716E-1
4.316215216E0,1.277320087E-1,8.122521639E-2,9.338951111E-2,1.778611892E-1
4.321265841E0,1.218302548E-1,9.855544567E-2,7.126617432E-2,1.721471883E-1
4.326317039E0,1.324601471E-1,6.333526969E-2,5.882930756E-2,1.581705864E-1
4.331367664E0,1.192501485E-1,4.008278251E-2,4.175281525E-2,1.325538568E-1
4.336418341E0,1.130306125E-1,5.024668574E-2,-6.072998047E-3,1.238447822E-1
4.341468966E0,8.290308714E-2,5.088084936E-2,-3.213214874E-2,1.024414841E-1
4.346519591E0,1.951467991E-2,3.974372149E-2,-2.710819244E-2,5.191570309E-2
4.351570268E0,2.534288168E-2,5.726540089E-2,1.617431641E-3,6.264346634E-2
4.356616310E0,2.462953329E-3,5.817198753E-2,-1.504421234E-2,6.013630017E-2
4.361666883E0,-2.488052845E-2,3.551605344E-2,5.394840240E-2,6.921604489E-2
4.366717560E0,-1.880154014E-2,1.159042120E-3,2.734184265E-2,3.320267534E-2
4.371768237E0,-1.267322898E-2,-2.315363288E-2,2.708244324E-2,3.781745867E-2
4.376818810E0,-3.277903795E-2,-1.849645376E-2,7.194805145E-2,8.119794479E-2
4.381869487E0,-3.836202621E-2,-3.035274148E-2,6.180000305E-2,7.881734801E-2
4.386916831E0,-4.845100641E-2,-4.201790690E-2,5.174350739E-2,8.240385355E-2
4.391967456E0,-5.588090420E-2,-4.409334064E-2,8.691501617E-2,1.123437501E-1
4.397018081E0,-7.037770748E-2,-4.155927896E-2,1.027956009E-1,1.313283326E-1
4.402068758E0,-7.273021340E-2,-5.584365129E-2,4.966640472E-2,1.042830240E-1
4.407119383E0,-2.497884631E-2,-3.934770823E-2,4.213333130E-2,6.282835755E-2
4.412170008E0,8.327931166E-3,-2.800363302E-2,3.705978394E-2,4.719094707E-2
4.417297508E0,3.676465154E-2,4.509121180E-3,-1.217842102E-3,3.706015267E-2
4.422348185E0,5.784192681E-2,2.251717448E-2,-3.680133820E-2,7.215989286E-2
4.427398810E0,1.117965579E-1,4.280775785E-2,-3.409099579E-2,1.244715650E-1
4.432449487E0,1.225547493E-1,7.978120446E-2,-5.280494690E-3,1.463304164E-1
4.437500112E0,1.165465713E-1,5.969941616E-2,-1.235675812E-2,1.315287536E-1
4.442550737E0,6.784179807E-2,8.281981945E-2,-3.601360321E-2,1.129540246E-1
4.447541049E0,5.280739069E-2,7.755681872E-2,-3.335475922E-2,9.958022195E-2
4.452591674E0,5.922982097E-2,6.315776706E-2,-3.073406219E-2,9.187849482E-2
4.457642352E0,4.881781340E-2,4.196554422E-2,-1.152229309E-2,6.539915171E-2
4.462692977E0,1.722356677E-2,4.536926746E-3,-2.573204041E-2,3.129493346E-2
4.467743602E0,9.600132704E-3,-3.505501151E-2,2.194404602E-2,4.245653702E-2
4.472794279E0,-3.612276912E-2,-2.675172687E-2,2.645206451E-2,5.215573848E-2
4.477845477E0,-7.217779756E-2,-2.807894349E-2,9.030437469E-2,1.189661364E-1
4.482896102E0,-6.775692105E-2,-2.717608213E-2,7.522773743E-2,1.048272496E-1
4.487946779E0,-6.813049316E-2,-2.665302157E-2,8.642387390E-2,1.132308864E-1
4.492997404E0,-5.885303020E-2,-2.397924662E-2,1.094198227E-1,1.265360859E-1
4.498048029E0,-4.216319323E-2,-1.456880569E-2,7.049274445E-2,8.342189150E-2
4.503098706E0,-4.224979877E-2,-1.970824599E-2,4.615020752E-2,6.559955877E-2
4.508135945E0,-4.461026192E-2,3.542125225E-3,3.627490997E-2,5.760634699E-2
4.513186570E0,-1.871168613E-3,3.070533276E-4,1.698493958E-2,1.709045716E-2
4.518237247E0,-1.417565346E-2,-1.968404651E-2,-2.140045166E-3,2.435139896E-2
4.523287872E0,3.301292658E-2,-2.757626772E-2,-4.248809814E-2,6.046108126E-2
4.528338549E0,5.373170972E-2,9.734839201E-3,-3.736209869E-2,6.616487091E-2
4.533389174E0,4.334577918E-2,1.817885041E-2,-4.653263092E-2,6.614085663E-2
4.538432456E0,4.498550296E-2,1.964512467E-2,-6.513404846E-2,8.156022725E-2
4.543483081E0,5.637192726E-2,2.114796638E-2,-3.843498230E-2,7.143023540E-2
4.548533706E0,5.584019423E-2,1.081517339E-2,-5.234336853E-2,7.729762930E-2
4.553584383E0,7.923352718E-2,-4.915195704E-2,-6.851005554E-2,1.157043405E-1
4.558635008E0,7.672506571E-2,-2.515548468E-2,-1.011667252E-1,1.294381721E-1
4.563685633E0,2.446421981E-2,-3.412127495E-3,-7.654666901E-2,8.043340849E-2
4.568742560E0,-3.686031699E-2,-2.899253368E-2,-9.490680695E-2,1.058610031E-1
4.573793185E0,-4.077053070E-2,-2.549347281E-2,-6.324768066E-2,7.945075481E-2
4.578843810E0,-7.109430432E-2,3.034028411E-2,-4.612255096E-2,9.001234723E-2
4.583894487E0,-1.034474373E-1,3.829067945E-2,-3.626728058E-2,1.161157356E-1
4.588945112E0,-5.002251267E-2,3.175336123E-2,2.102375031E-2,6.286911643E-2
4.593995737E0,-3.738552332E-2,6.089183688E-2,2.320289612E-2,7.512567831E-2
4.599067091E0,1.113861799E-2,5.636706948E-2,-7.448196411E-4,5.746190120E-2
4.604117716E0,3.317895532E-2,5.404618382E-2,-2.923202515E-2,6.983082669E-2
4.609168341E0,4.321220517E-2,7.766920328E-2,-7.885169983E-2,1.188166250E-1
4.614219018E0,3.168195486E-2,6.763386726E-2,-9.954643250E-2,1.244491000E-1
4.619269643E0,2.960205078E-2,7.912358642E-2,-1.557121277E-1,1.771527308E-1
4.624320268E0,9.137901664E-2,6.429642439E-2,-2.066679001E-1,2.349378126E-1
4.629359852E0,1.049866974E-1,5.905690789E-2,-1.930656433E-1,2.275615689E-1
4.634410477E0,8.238992095E-2,4.933029413E-2,-1.629762650E-1,1.891635270E-1
4.639461154E0,6.912958622E-2,1.620161533E-2,-1.640472412E-1,1.787537115E-1
4.644511779E0,3.915345669E-2,1.217967272E-2,-1.271238327E-1,1.335732250E-1
4.649562404E0,-3.291368484E-4,-3.171718121E-2,-8.578777313E-2,9.146381762E-2
4.654613081E0,-3.916588426E-2,-2.483639121E-2,-1.154518127E-2,4.779230093E-2
4.659668029E0,-5.588084459E-2,-4.615041614E-2,6.208229065E-2,9.542924350E-2
4.664718654E0,-7.433018088E-2,-3.131166101E-2,1.113500595E-1,1.374926604E-1
4.669769331E0,-1.653401554E-1,-3.757071495E-2,1.602325439E-1,2.332882203E-1
4.674819956E0,-2.209416032E-1,-8.396905661E-2,1.446256638E-1,2.770966927E-1
4.679870581E0,-1.990363896E-1,-1.415641010E-1,7.929992676E-2,2.567963346E-1
4.684921258E0,-1.816156209E-1,-1.579539031E-1,7.154178619E-2,2.511013668E-1
4.689963966E0,-1.856956482E-1,-1.381904185E-1,6.383895874E-2,2.401143023E-1
4.695014591E0,-1.779289246E-1,-1.301749647E-1,4.906368256E-2,2.258571862E-1
4.700065268E0,-1.534059942E-1,-9.585779905E-2,7.480239868E-2,1.957486029E-1
4.705115893E0,-1.289469600E-1,-4.052251577E-2,7.420921326E-2,1.541959795E-1
4.710166518E0,-1.045952737E-1,4.887789488E-3,8.312988281E-2,1.336960702E-1
4.715217195E0,-6.867709756E-2,1.902881265E-2,1.109819412E-1,1.318924968E-1
4.720259904E0,-2.595752478E-3,1.858466864E-2,8.870506287E-2,9.066816430E-2
4.725310529E0,8.628588915E-2,4.402843118E-2,1.449985504E-1,1.743798642E-1
4.730361154E0,1.051834226E-1,1.912868023E-2,1.604318619E-1,1.927896291E-1
4.735411831E0,1.211426854E-1,1.541483402E-2,1.139678955E-1,1.670384643E-1
4.740462456E0,9.829893708E-2,4.159659147E-3,1.462669373E-1,1.762781913E-1
4.745513081E0,1.437698901E-1,3.050911427E-2,2.044076920E-1,2.517599886E-1
4.750566102E0,1.076856852E-1,4.177415371E-2,2.050504684E-1,2.353443887E-1
4.755616674E0,1.046497524E-1,1.427605748E-2,2.104349136E-1,2.354532424E-1
4.760667352E0,9.896075726E-2,4.092964530E-2,2.181596756E-1,2.430269767E-1
4.765718029E0,6.466299295E-2,1.200330257E-2,2.115821838E-1,2.215680538E-1
4.770768602E0,1.175639033E-2,6.350040436E-3,2.027149200E-1,2.031548044E-1
4.775819279E0,2.359214425E-2,-1.908853650E-2,1.535711288E-1,1.565408992E-1
4.780884383E0,2.124369144E-3,-4.252079129E-2,7.160282135E-2,8.330362934E-2
4.785935008E0,-3.785207868E-2,-7.323870063E-2,4.599571228E-3,8.257023184E-2
4.790985685E0,-7.960602641E-2,-8.495225012E-2,-5.944824219E-2,1.307214510E-1
4.796036310E0,-1.207543612E-1,-6.817126274E-2,-1.205682755E-1,1.837543084E-1
4.801086935E0,-1.209180355E-1,-1.130378246E-1,-1.835498810E-1,2.471624565E-1
4.806137612E0,-1.447386146E-1,-1.024854779E-1,-2.151327133E-1,2.788092970E-1
4.811178445E0,-1.732854247E-1,-9.621536732E-2,-2.346019745E-1,3.071210214E-1
4.816229070E0,-1.471784711E-1,-8.712452650E-2,-2.515621185E-1,3.041967866E-1
4.821279747E0,-1.568955779E-1,-6.559103727E-2,-2.779045105E-1,3.258056529E-1
4.826330372E0,-1.522951126E-1,-4.368764162E-2,-2.256536484E-1,2.757208378E-1
4.831380997E0,-1.025583744E-1,-9.639143944E-3,-1.809787750E-1,2.082413270E-1
4.836431674E0,-4.849398136E-2,1.043197513E-2,-2.269659042E-1,2.323230811E-1
4.841477820E0,-2.380782366E-2,6.834149361E-3,-1.633262634E-1,1.651937844E-1
4.846528445E0,3.134134412E-2,4.855045676E-2,-1.738739014E-1,1.832254357E-1
4.851579122E0,8.334812522E-2,6.136858463E-2,-1.891002655E-1,2.155734760E-1
4.856629747E0,1.157717109E-1,8.819317818E-2,-1.543159485E-1,2.121191591E-1
4.861680372E0,1.360582113E-1,8.831498027E-2,-1.245594025E-1,2.045150785E-1
4.866731049E0,1.061455309E-1,1.260467470E-1,-1.520576477E-1,2.242235143E-1
4.871789331E0,9.988769889E-2,1.013601422E-1,-1.460762024E-1,2.039354989E-1
4.876839956E0,1.005615890E-1,1.025602818E-1,-1.306400299E-1,1.941598877E-1
4.881890581E0,7.490131259E-2,8.909681439E-2,-9.869956970E-2,1.526107926E-1
4.886941258E0,9.640148282E-2,9.465926886E-2,-1.216878891E-1,1.818283955E-1
4.891991883E0,9.149119258E-2,1.047757864E-1,-1.539878845E-1,2.075111378E-1
4.897042560E0,8.667770028E-2,6.957411766E-2,-1.123685837E-1,1.580515111E-1
4.902082247E0,8.434295654E-2,9.644281864E-2,-1.257305145E-1,1.795079772E-1
4.907132872E0,6.323203444E-2,9.009361267E-2,-1.484823227E-1,1.848300554E-1
4.912183497E0,3.765401244E-2,7.001808286E-2,-1.520490646E-1,1.715787709E-1
4.917234174E0,1.704224944E-2,2.445018291E-2,-1.342239380E-1,1.374929643E-1
4.922284799E0,3.729015589E-3,1.058220863E-3,-9.518241882E-2,9.526131556E-2
4.927335424E0,-4.526984692E-2,-1.212659478E-2,-6.124210358E-2,7.711685024E-2
4.932387768E0,-2.502235770E-2,-1.290702820E-2,-3.710556030E-2,4.657823920E-2
4.937438393E0,4.291504622E-3,-6.148844957E-3,2.956390381E-2,3.049999532E-2
4.942489018E0,2.152991295E-2,-4.422548413E-2,3.865432739E-2,6.255867346E-2
4.947539643E0,3.598704934E-2,-1.521185040E-2,1.189136505E-1,1.251675852E-1
4.952590268E0,6.937628984E-2,-1.959815621E-2,1.723737717E-1,1.868418435E-1
4.957640945E0,9.076562524E-2,-3.102186322E-2,2.087669373E-1,2.297485339E-1
4.962702091E0,8.843323588E-2,-1.651626825E-2,2.401275635E-1,2.564263463E-1
4.967752716E0,7.006579638E-2,-9.525567293E-3,2.522592545E-1,2.619822202E-1
4.972803393E0,4.477673769E-2,-7.656246424E-3,3.355703354E-1,3.386311036E-1
4.977854018E0,6.261593103E-2,-1.569598913E-3,3.398208618E-1,3.455451296E-1
4.982904643E0,5.681329966E-2,-5.397856236E-3,3.393087387E-1,3.440745675E-1
4.987955320E0,7.016748190E-2,-3.822189569E-2,3.174438477E-1,3.273453608E-1
4.993005685E0,3.367361426E-2,-7.216602564E-3,2.957878113E-1,2.977858643E-1
4.998056310E0,4.751974344E-2,-3.028035164E-3,2.173194885E-1,2.224748415E-1
5.003106987E0,5.185261369E-2,-1.122188568E-2,2.084178925E-1,2.150642745E-1
5.008157612E0,6.080120802E-2,-1.025560498E-2,1.710920334E-1,1.818638178E-1
5.013208237E0,4.090765119E-2,1.419678330E-2,1.412000656E-1,1.476903623E-1
5.018258914E0,7.312828302E-2,6.441953778E-2,9.729576111E-2,1.377101585E-1
5.023341466E0,1.238824427E-1,8.545973897E-2,5.850696564E-2,1.614722627E-1
5.028392091E0,1.099248230E-1,6.115326285E-2,5.329418182E-2,1.366142675E-1
5.033442768E0,1.055351496E-1,4.892936349E-2,6.237697601E-2,1.319948391E-1
5.038493393E0,8.445426822E-2,5.344334245E-2,2.862071991E-2,1.039608574E-1
5.043544018E0,6.815081835E-2,3.665393591E-2,-2.624511719E-2,8.171200178E-2
5.048594695E0,4.707375169E-2,2.950409055E-2,-1.652050018E-2,5.795995500E-2
5.053612872E0,3.098875284E-2,1.065817475E-2,-1.875495911E-2,3.775775394E-2
5.058663497E0,3.160700202E-2,-7.779985666E-3,-6.374073029E-2,7.157102382E-2
5.063714174E0,2.994912863E-2,-1.429125667E-2,-4.658031464E-2,5.719192281E-2
5.068764747E0,3.775516152E-2,2.954900265E-3,-5.094146729E-2,6.347611162E-2
5.073815424E0,5.504688621E-2,1.540592313E-2,-3.151130676E-2,6.527223454E-2
5.078866049E0,5.804210901E-2,2.537289262E-2,-2.173995972E-2,6.697235211E-2
5.083903758E0,3.742229939E-2,2.344280481E-2,-4.919052124E-3,4.443186540E-2
5.088954383E0,7.192793489E-2,4.776671529E-2,-2.861118317E-2,9.096090758E-2
5.094005008E0,1.015555859E-1,1.487964392E-2,-6.159973145E-2,1.197057548E-1
5.099055685E0,5.978256464E-2,1.099124551E-2,-5.393218994E-2,8.126157533E-2
5.104106258E0,5.383816361E-2,3.094747663E-2,-5.953788757E-3,6.238382620E-2
5.109156883E0,7.569104433E-3,-1.312959194E-2,-5.894660950E-3,1.626113631E-2
5.114202508E0,-2.416071296E-2,-2.817088366E-2,-8.222579956E-3,3.801249213E-2
5.119253185E0,-4.845196009E-2,-2.171257138E-2,-1.290416718E-2,5.464014754E-2
5.124303810E0,-9.862327576E-2,-5.828121305E-2,-3.282546997E-3,1.146037758E-1
5.129354435E0,-9.369271994E-2,-4.244682193E-2,-2.461528778E-2,1.057637502E-1
5.134405112E0,-9.609633684E-2,-6.492114067E-2,2.311897278E-2,1.182528958E-1
5.139455685E0,-8.190721273E-2,-1.228458732E-1,8.689880371E-3,1.479033945E-1
5.144517768E0,-8.468034863E-2,-8.791154623E-2,-3.242492676E-3,1.221053445E-1
5.149568393E0,-7.549992204E-2,-7.712653279E-2,-8.163452148E-4,1.079324173E-1
5.154619018E0,-5.673715472E-2,-9.989777207E-2,5.386543274E-2,1.268863840E-1
5.159669643E0,-6.674358249E-2,-4.894432425E-2,5.345630646E-2,9.852831766E-2
5.164720320E0,-3.147718310E-2,-2.459651232E-2,1.742172241E-2,4.358116435E-2
5.169770945E0,-4.406952858E-2,-3.856694698E-2,2.207374573E-2,6.258420727E-2
5.174818654E0,7.687568665E-3,-3.832295537E-2,2.432346344E-2,4.603670811E-2
5.179869279E0,-9.821325541E-3,-3.110790253E-2,-1.943588257E-3,3.267931410E-2
5.184919904E0,-3.203758597E-2,-4.295504093E-2,1.476383209E-2,5.558338956E-2
5.189970529E0,-5.200216174E-2,-9.740641713E-2,2.181434631E-2,1.125526571E-1
5.195021206E0,-6.709933281E-2,-8.272016048E-2,-1.157093048E-2,1.071393105E-1
5.200071831E0,-6.807410717E-2,-9.211590886E-2,2.421092987E-2,1.170708924E-1
5.205113185E0,-9.047389030E-2,-6.590381265E-2,2.168846130E-2,1.140141513E-1
5.210163810E0,-1.055652797E-1,-9.259763360E-2,3.820896149E-2,1.455275739E-1
5.215214435E0,-1.347839534E-1,-8.153051138E-2,4.986286163E-2,1.652278529E-1
5.220265060E0,-1.258590817E-1,-8.048012853E-2,3.530025482E-2,1.535046173E-1
5.225315737E0,-1.168082356E-1,-7.252994180E-2,2.800655365E-2,1.403179369E-1
5.230366362E0,-1.263713539E-1,-1.125267446E-1,6.557464600E-3,1.693369058E-1
5.235431727E0,-6.423389912E-2,-1.049124599E-1,1.857185364E-2,1.244087287E-1
5.240482404E0,-3.783428669E-2,-1.211086512E-1,-3.838348389E-2,1.325595356E-1
5.245532977E0,-2.554014325E-2,-1.012209356E-1,-6.873035431E-2,1.249873526E-1
5.250583654E0,-3.535360098E-3,-7.638433576E-2,-9.882354736E-2,1.249526272E-1
5.255634279E0,8.994966745E-3,-8.211192489E-2,-2.023200989E-1,2.185330640E-1
5.260684904E0,1.873207092E-2,-5.380278826E-2,-2.218561172E-1,2.290540706E-1
5.265731727E0,1.841393113E-2,-3.677207232E-2,-2.032775879E-1,2.073958435E-1
5.270782352E0,2.233472466E-2,-9.436696768E-3,-1.920442581E-1,1.935688204E-1
5.275832977E0,1.847040653E-2,-7.677286863E-3,-1.215791702E-1,1.232136002E-1
5.280883602E0,9.417921305E-3,-2.673864365E-2,-8.975505829E-2,9.412556929E-2
5.285934279E0,4.779762030E-2,-3.323966265E-2,-8.340835571E-3,5.881375024E-2
5.290984904E0,5.250030756E-2,-3.926485777E-2,6.999778748E-2,9.590464848E-2
5.296030112E0,2.741545439E-3,-4.750767350E-2,1.215581894E-1,1.305407543E-1
5.301080737E0,2.012127638E-2,-4.844757915E-2,1.679410934E-1,1.759438676E-1
5.306131362E0,-5.251944065E-3,-9.478005767E-2,2.472152710E-1,2.648135806E-1
5.311181987E0,-3.960779309E-2,-9.105315804E-2,2.735881805E-1,2.910497335E-1
5.316232612E0,-5.168065429E-2,-6.619480252E-2,2.403898239E-1,2.546368185E-1
5.321283237E0,-7.507926226E-2,-4.920968413E-2,2.621469498E-1,2.770911617E-1
5.326340320E0,-5.058160424E-2,5.101799965E-3,2.386198044E-1,2.439752817E-1
5.331390945E0,-1.658415794E-2,2.749836445E-2,2.058200836E-1,2.083101082E-1
5.336441570E0,3.137382865E-2,5.165687203E-2,1.448068619E-1,1.569132780E-1
5.341492195E0,9.540390968E-2,7.999926805E-2,1.151933670E-1,1.696210502E-1
5.346542872E0,1.418580115E-1,9.829404950E-2,1.000785828E-1,1.995022263E-1
5.351593497E0,1.807006001E-1,1.493869722E-1,1.041049957E-1,2.565287986E-1
5.356652820E0,2.382395267E-1,1.262136102E-1,5.347061157E-2,2.748582431E-1
5.361703445E0,2.597401738E-1,1.267518401E-1,1.277542114E-2,2.892994958E-1
5.366754070E0,2.382217646E-1,1.319014132E-1,-1.094722748E-2,2.725205198E-1
5.371804747E0,1.978459656E-1,1.489026546E-1,-2.259540558E-2,2.486474995E-1
5.376855372E0,1.623714268E-1,1.112484634E-1,-3.890895844E-2,2.006355101E-1
5.381905997E0,1.386627257E-1,1.309292018E-1,-5.747795105E-2,1.991821334E-1
5.386951258E0,1.220863461E-1,9.329217672E-2,-6.401252747E-2,1.664515240E-1
5.392001883E0,6.278356910E-2,7.259389758E-2,-1.227579117E-1,1.558241169E-1
5.397052508E0,5.855843425E-2,4.008397460E-2,-1.073675156E-1,1.286996451E-1
5.402103185E0,5.436933041E-2,3.397580981E-2,-8.497619629E-2,1.064487373E-1
5.407153810E0,3.602275252E-2,3.980240226E-2,-8.414840698E-2,9.981394854E-2
5.412204435E0,3.487122059E-2,5.032745004E-2,-1.236934662E-1,1.380178533E-1
5.417251674E0,4.111823440E-2,5.849611759E-2,-8.688545227E-2,1.125237166E-1
5.422302299E0,2.872967720E-2,4.996788502E-2,-1.168813705E-1,1.303205228E-1
5.427352924E0,3.106108308E-2,5.343908072E-2,-1.371126175E-1,1.504007849E-1
5.432403602E0,3.606790304E-2,5.920910835E-2,-1.666603088E-1,1.805055974E-1
5.437454227E0,1.748162508E-2,9.586185217E-2,-1.674499512E-1,1.937384527E-1
5.442504852E0,2.306991816E-2,7.778322697E-2,-1.872367859E-1,2.040589756E-1
5.447554487E0,4.059952497E-2,5.273407698E-2,-1.569662094E-1,1.704922145E-1
5.452605112E0,6.517097354E-2,9.214371443E-2,-1.459550858E-1,1.845009674E-1
5.457655737E0,1.035997272E-1,7.670480013E-2,-1.326723099E-1,1.849823549E-1
5.462706362E0,8.461159468E-2,7.571464777E-2,-1.100053787E-1,1.580917872E-1
5.467756987E0,1.202284396E-1,6.044006348E-2,-9.465694427E-2,1.645229955E-1
5.472807612E0,9.364342690E-2,5.939996243E-2,-7.705783844E-2,1.350383553E-1
5.477862404E0,5.753874779E-2,4.629421234E-2,-5.960273743E-2,9.490178029E-2
5.482913081E0,3.336760402E-2,2.354776859E-2,-4.466342926E-2,6.052037935E-2
5.487963706E0,-7.371127605E-3,5.387425423E-3,2.242851257E-2,2.421561585E-2
5.493014331E0,-4.554069042E-2,-1.519948244E-2,4.145908356E-2,6.343370051E-2
5.498064956E0,-6.216397882E-2,-1.686930656E-2,2.945804596E-2,7.082873878E-2
5.503115581E0,-1.237358451E-1,-6.175804138E-2,1.996326447E-2,1.397252553E-1
5.508165008E0,-1.301672757E-1,-7.085484266E-2,2.243995667E-2,1.498915609E-1
5.513215633E0,-1.341247857E-1,-8.463385701E-2,2.965164185E-2,1.613430127E-1
5.518266258E0,-1.546363831E-1,-1.007335484E-1,-2.257823944E-2,1.859285767E-1
5.523316935E0,-1.345546246E-1,-1.119056344E-1,-5.061721802E-2,1.821810110E-1
5.528367560E0,-1.266299486E-1,-1.085805595E-1,-9.031009674E-2,1.896860442E-1
5.533418185E0,-1.209402382E-1,-1.048153639E-1,-9.880924225E-2,1.880852681E-1
5.538464591E0,-1.149999201E-1,-8.863711357E-2,-7.400035858E-2,1.629649429E-1
5.543515216E0,-1.397421658E-1,-9.583860636E-2,-9.930515289E-2,1.964037290E-1
5.548565841E0,-1.594287157E-1,-8.092629910E-2,-1.410627365E-1,2.277394935E-1
5.553616518E0,-1.812932491E-1,-6.061756611E-2,-1.326322556E-1,2.326650956E-1
5.558667091E0,-1.650900245E-1,-1.600527763E-2,-1.314468384E-1,2.116344878E-1
5.563717768E0,-1.636554301E-1,-2.578741312E-2,-8.756351471E-2,1.873911940E-1
5.568776310E0,-1.338432729E-1,-6.115835905E-2,-8.446407318E-2,1.696718782E-1
5.573826935E0,-4.770228267E-2,-6.727224588E-2,-8.143520355E-2,1.158997637E-1
5.578877560E0,-7.938414812E-3,-7.070136070E-2,-3.570938110E-2,7.960440147E-2
5.583928237E0,5.732187629E-2,-5.725866556E-2,5.237007141E-2,9.647267314E-2
5.588978810E0,9.313070774E-2,-8.156180382E-2,1.040430069E-1,1.617114834E-1
5.594029487E0,7.148396969E-2,-5.798727274E-2,1.718997955E-1,1.949923625E-1
5.599079122E0,1.045109034E-1,-5.365771055E-2,2.700710297E-1,2.945166207E-1
5.604129747E0,6.616392732E-2,-5.669093132E-2,3.151817322E-1,3.270031365E-1
5.609180372E0,4.244089127E-2,-5.758410692E-2,3.409309387E-1,3.483547956E-1
5.614230997E0,2.604129910E-2,-4.231053591E-2,3.474884033E-1,3.510221092E-1
5.619281622E0,4.551494122E-2,-3.011381626E-2,3.540306091E-1,3.582124007E-1
5.624332299E0,4.865720868E-2,-7.334083319E-2,3.486986160E-1,3.596347127E-1
5.629391727E0,5.213361979E-2,-8.115333319E-2,3.482122421E-1,3.613247063E-1
5.634442352E0,1.035045683E-1,-7.057732344E-2,2.978992462E-1,3.231691742E-1
5.639492977E0,6.438916922E-2,-2.270615101E-2,2.908115387E-1,2.987187397E-1
5.644543654E0,5.917108059E-2,-1.371324062E-2,2.196846008E-1,2.279267286E-1
5.649594279E0,4.692903161E-2,1.131463051E-2,1.610622406E-1,1.681410129E-1
5.654644904E0,2.057620883E-2,6.183844805E-2,1.124591827E-1,1.299786206E-1
5.659668029E0,-5.459398031E-3,5.695784092E-2,4.528427124E-2,7.297030828E-2
5.664718654E0,6.671071053E-3,8.983540535E-2,4.817962646E-3,9.021150707E-2
5.669769279E0,4.503726959E-3,9.615349770E-2,-5.667781830E-2,1.117056568E-1
5.674819904E0,3.080967069E-2,1.047427058E-1,-1.176557541E-1,1.605090237E-1
5.679870529E0,3.293973207E-2,1.323214769E-1,-1.686325073E-1,2.168661378E-1
5.684921154E0,2.054560184E-2,1.290543079E-1,-1.978282928E-1,2.370931665E-1
5.689985841E0,1.738756895E-2,1.544640660E-1,-2.458057404E-1,2.908297393E-1
5.695036466E0,4.554688931E-3,1.656346321E-1,-2.839002609E-1,3.287171044E-1
5.700087091E0,1.037165523E-2,1.439292431E-1,-2.884674072E-1,3.225471179E-1
5.705137768E0,2.533417940E-2,1.679598093E-1,-2.621507645E-1,3.123705196E-1
5.710188341E0,3.305375576E-2,1.707797647E-1,-2.550802231E-1,3.087461724E-1
5.715239018E0,4.082518816E-2,1.264887452E-1,-3.264846802E-1,3.525029717E-1
5.720295424E0,5.788761377E-2,1.116507053E-1,-2.666816711E-1,2.948490623E-1
5.725346049E0,9.144666791E-2,1.378475428E-1,-2.572994232E-1,3.058879391E-1
5.730396674E0,4.629641771E-2,1.167916059E-1,-2.290229797E-1,2.612186111E-1
5.735447352E0,4.666915536E-2,1.415205598E-1,-1.463766098E-1,2.088831989E-1
5.740497977E0,3.035858274E-2,1.141977310E-1,-1.262130737E-1,1.728944918E-1
5.745548602E0,-1.200219989E-2,9.929031134E-2,-9.198665619E-2,1.358829042E-1
5.750600841E0,5.329638720E-3,1.038253903E-1,-3.431415558E-2,1.094786646E-1
5.755651466E0,-3.668844700E-3,9.184753895E-2,1.098823547E-2,9.257522428E-2
5.760702091E0,-3.624713421E-2,7.996702194E-2,3.453826904E-2,9.434760922E-2
5.765752768E0,-3.989499807E-2,7.288223505E-2,6.977844238E-2,1.085009773E-1
5.770803393E0,-5.766159296E-2,8.713191748E-2,1.213655472E-1,1.601450167E-1
5.775854018E0,-6.805664301E-2,7.729518414E-2,1.060256958E-1,1.478096760E-1
5.780910112E0,-6.390836835E-2,4.109501839E-2,1.003437042E-1,1.258647650E-1
5.785960737E0,-4.068127275E-2,1.681518555E-2,1.113595963E-1,1.197442111E-1
5.791011362E0,-4.150733352E-2,2.805805206E-2,8.904361725E-2,1.021708314E-1
5.796062039E0,-3.751966357E-2,-6.134986877E-3,7.643318176E-2,8.536623743E-2
5.801112664E0,-5.024230480E-2,-9.315848351E-3,7.106304169E-2,8.752731069E-2
5.806163289E0,-3.445297480E-2,-5.306124687E-2,1.227617264E-1,1.381048328E-1
5.811188914E0,-8.054935932E-2,-2.516931295E-2,1.075153351E-1,1.366793360E-1
5.816239539E0,-1.141814590E-1,-3.325265646E-2,9.241008759E-2,1.506079979E-1
5.821290164E0,-1.521835029E-1,-3.187268972E-2,1.439571381E-1,2.118946543E-1
5.826340789E0,-1.588447392E-1,-5.664247274E-2,1.261892319E-1,2.106270237E-1
5.831391466E0,-1.818958819E-1,-6.469404697E-2,8.957958221E-2,2.128284124E-1
5.836442039E0,-1.807602644E-1,-5.854052305E-2,1.031780243E-1,2.162104778E-1
5.841514018E0,-1.439159214E-1,-5.018281937E-2,8.816814423E-2,1.760787593E-1
5.846564695E0,-1.497268975E-1,-6.585550308E-2,2.817630768E-2,1.659789006E-1
5.851615268E0,-1.527110040E-1,-4.819947481E-2,1.621437073E-2,1.609557266E-1
5.856665945E0,-1.600743234E-1,-3.782618046E-2,-4.077053070E-2,1.694604530E-1
5.861716570E0,-1.506539285E-1,-2.057427168E-2,-4.262638092E-2,1.579142653E-1
5.866767195E0,-1.507207751E-1,-4.158437252E-2,-7.058715820E-2,1.715475415E-1
5.871811674E0,-1.578810811E-1,8.579969406E-3,-1.553068161E-1,2.216309066E-1
5.876862299E0,-1.413440406E-1,-8.042573929E-3,-1.704425812E-1,2.215705177E-1
5.881912924E0,-1.441502869E-1,-5.517899990E-3,-2.329702377E-1,2.740162114E-1
5.886963602E0,-1.447102427E-1,-1.024258137E-2,-2.213335037E-1,2.646402930E-1
5.892014227E0,-1.099525392E-1,4.229485989E-3,-2.240695953E-1,2.496289907E-1
5.897064852E0,-1.588328481E-1,-9.714663029E-3,-2.315559387E-1,2.809633447E-1
5.902109539E0,-1.339241862E-1,-6.806910038E-3,-2.199935913E-1,2.576416152E-1
5.907160164E0,-1.333097816E-1,5.619168282E-3,-2.465496063E-1,2.803386903E-1
5.912210789E0,-1.497455239E-1,1.469552517E-3,-2.396535873E-1,2.825946274E-1
5.917261466E0,-1.398762465E-1,-2.862775326E-2,-1.900644302E-1,2.377170592E-1
5.922312091E0,-9.199145436E-2,1.010715961E-3,-2.145338058E-1,2.334270830E-1
5.927362716E0,-4.921221733E-2,-7.401943207E-3,-1.960525513E-1,2.022702004E-1
5.932418966E0,-3.999185562E-2,5.844414234E-3,-1.801137924E-1,1.845927515E-1
5.937469591E0,1.461803913E-4,-2.290129662E-3,-1.619358063E-1,1.619520652E-1
5.942520216E0,1.397487521E-2,-3.612369299E-2,-1.415548325E-1,1.467582670E-1
5.947570893E0,2.290436625E-2,-3.841942549E-2,-8.336353302E-2,9.460518424E-2
5.952621518E0,-6.245315075E-3,-2.364933491E-2,-5.181694031E-2,5.730000266E-2
5.957672143E0,-1.837116480E-2,-5.620312691E-2,-2.292728424E-2,6.341885786E-2
5.962761154E0,-7.294842601E-2,-4.065674543E-2,2.233505249E-2,8.644824102E-2
5.967811831E0,-6.283429265E-2,-4.884946346E-2,2.445411682E-2,8.326116888E-2
5.972862456E0,-5.746659636E-2,-8.538413048E-2,2.417659760E-2,1.057230689E-1
5.977913081E0,-4.492437840E-2,-7.410943508E-2,7.141685486E-2,1.122977083E-1
5.982963706E0,-7.521310449E-2,-6.288653612E-2,7.312488556E-2,1.223068943E-1
5.988014331E0,-6.244888902E-2,-5.667006969E-2,9.383678436E-2,1.261614150E-1
5.993034070E0,-2.140063047E-2,-3.647047281E-2,1.096372604E-1,1.175091964E-1
5.998084747E0,1.681202650E-2,9.428262711E-3,9.918975830E-2,1.010452598E-1
6.003135372E0,5.713382363E-2,-1.431018114E-2,8.648204803E-2,1.046336453E-1
6.008185997E0,8.065813780E-2,4.654824734E-3,7.627964020E-2,1.111124930E-1
6.013236622E0,1.088935733E-1,8.948385715E-3,4.480743408E-2,1.180914479E-1
6.018287247E0,1.345888674E-1,2.483355999E-2,5.875301361E-2,1.489388651E-1
6.023322195E0,9.842699766E-2,6.419807673E-2,3.221416473E-2,1.218483456E-1
6.028372820E0,1.053504944E-1,6.507909298E-2,2.728748322E-2,1.268015053E-1
6.033423393E0,9.537941217E-2,6.590074301E-2,2.002239227E-2,1.176479341E-1
6.038474070E0,5.936804414E-2,7.854503393E-2,1.519680023E-2,9.962343980E-2
6.043524695E0,6.140902638E-2,6.257945299E-2,-2.047920227E-2,9.003696010E-2
6.048575320E0,8.012896776E-2,6.095600128E-2,-2.259540558E-2,1.031835157E-1
6.053631049E0,7.731714845E-2,3.332018852E-2,-3.658008575E-2,9.179476609E-2
6.058681674E0,4.607796669E-2,3.690367937E-2,-6.233024597E-2,8.584940377E-2
6.063732299E0,5.295166373E-2,3.111129999E-2,-1.186561584E-2,6.255065562E-2
6.068782924E0,4.317164421E-4,2.072018385E-2,-4.972267151E-2,5.386888211E-2
6.073833549E0,-1.592111588E-2,3.664666414E-2,-1.062717438E-1,1.135347676E-1
6.078884174E0,-1.302546263E-2,2.556264400E-3,-4.594516754E-2,4.782421546E-2
6.083932924E0,-1.522096992E-2,4.433214664E-3,-7.403087616E-2,7.570932533E-2
6.088983549E0,-2.226474881E-2,1.109153032E-2,-1.018905640E-1,1.048829257E-1
6.094034174E0,-1.747992635E-2,-1.311779022E-3,-7.013225555E-2,7.228970783E-2
6.099084799E0,-3.422266245E-2,-1.684010029E-3,-3.152084351E-2,4.655738492E-2
6.104135424E0,-1.287695765E-2,9.716689587E-3,-1.222896576E-2,2.024296664E-2
6.109186049E0,2.738764882E-2,-5.062341690E-3,-2.873134613E-2,4.001500796E-2
6.114230997E0,-1.573622227E-3,-7.788121700E-3,-3.084659576E-2,3.185347072E-2
6.119281570E0,4.117646813E-2,1.806491613E-2,-1.156044006E-2,4.642721720E-2
6.124332195E0,2.676534653E-2,3.662782907E-2,2.182197571E-2,5.034064224E-2
6.129382820E0,4.553154111E-2,2.916908264E-2,6.677818298E-2,8.592602831E-2
6.134433445E0,4.254966974E-2,3.390818834E-2,9.945392609E-2,1.133636760E-1
6.139484070E0,1.330959797E-2,3.871387243E-2,1.175909042E-1,1.245131723E-1
6.144546518E0,2.706420422E-2,4.590404034E-2,1.664533615E-1,1.747752088E-1
6.149597091E0,3.131464124E-2,5.773639679E-2,1.769084930E-1,1.887080104E-1
6.154647768E0,2.601972222E-2,7.173788548E-2,1.777820587E-1,1.934678541E-1
6.159698393E0,2.561631799E-2,1.884365082E-2,1.691694260E-1,1.721324304E-1
6.164749018E0,3.728508949E-3,1.596242189E-2,1.915292740E-1,1.922294553E-1
6.169799643E0,3.412482142E-2,-2.284222841E-2,1.282014847E-1,1.346175750E-1
6.174839747E0,5.234292150E-2,-4.495120049E-2,1.343097687E-1,1.509950523E-1
6.179890372E0,8.476930857E-2,-6.951177120E-2,1.403903961E-1,1.781212658E-1
6.184940997E0,9.534505010E-2,-4.196655750E-2,1.274356842E-1,1.645956383E-1
6.189991622E0,7.020726800E-2,-5.766719580E-2,1.193590164E-1,1.500038025E-1
6.195042247E0,-4.487723112E-3,-6.145608425E-2,1.184883118E-1,1.335532477E-1
6.200092872E0,2.215772867E-3,-5.829143524E-2,1.057634354E-1,1.207837130E-1
6.205142820E0,-8.389052749E-2,-4.580914974E-2,1.359119415E-1,1.661570181E-1
6.210193445E0,-1.097503901E-1,-7.360041142E-3,1.444387436E-1,1.815540387E-1
6.215244070E0,-1.187414527E-1,-5.138337612E-3,7.927608490E-2,1.428657858E-1
6.220294643E0,-1.038739383E-1,2.535140514E-2,1.168241501E-1,1.583678340E-1
6.225345268E0,-7.687169313E-2,2.210372686E-2,4.956626892E-2,9.409913369E-2
6.230395893E0,-4.495090246E-2,3.761523962E-2,-4.663467407E-4,5.861490735E-2
6.235451883E0,1.063966751E-2,4.332190752E-2,-8.094310760E-2,9.242173372E-2
6.240502508E0,5.899956822E-2,3.932458162E-2,-1.274642944E-1,1.458578696E-1
6.245553133E0,9.751349688E-2,5.199360847E-2,-2.187309265E-1,2.450621056E-1
6.250603758E0,1.569014043E-1,1.003586054E-1,-2.736206055E-1,3.309956738E-1
6.255654383E0,2.010400146E-1,6.312417984E-2,-2.663316727E-1,3.396090538E-1
6.260705008E0,2.131926566E-1,5.989599228E-2,-2.924203873E-1,3.668082900E-1
6.265760581E0,2.105229646E-1,6.436496973E-2,-2.542123795E-1,3.362836627E-1
6.270811206E0,1.695451438E-1,7.414144278E-2,-2.330093384E-1,2.975497624E-1
6.275861831E0,1.334291399E-1,6.763702631E-2,-1.716413498E-1,2.276814785E-1
6.280912456E0,8.792921901E-2,2.840828896E-2,-7.756996155E-2,1.206469120E-1
6.285963081E0,3.816568851E-2,1.605504751E-2,-2.707195282E-2,4.946993996E-2
6.291013706E0,-2.057707310E-2,4.066348076E-3,3.249168396E-2,3.867377213E-2
6.296063497E0,-4.541662335E-2,-6.473153830E-2,4.642009735E-2,9.169333217E-2
6.301114122E0,-2.447533607E-2,-6.413030624E-2,7.925796509E-2,1.048501945E-1
6.306164747E0,-3.420364857E-2,-9.231323004E-2,4.059028625E-2,1.064856486E-1
6.311215372E0,-8.383557200E-2,-8.257210255E-2,4.029369354E-2,1.243790054E-1
6.316265997E0,-9.475398064E-2,-4.720640182E-2,3.766727448E-2,1.123636275E-1
6.321316622E0,-7.455992699E-2,-7.411473989E-2,2.083206177E-2,1.071734677E-1
6.326378914E0,-8.779910207E-2,-7.973814011E-2,-1.959228516E-2,1.202111099E-1
6.331429539E0,-4.898327589E-2,-6.192183495E-2,-7.629203796E-2,1.097913932E-1
6.336480112E0,-1.528573036E-2,-6.583803892E-2,-1.111240387E-1,1.300648027E-1
6.341530737E0,-3.080338240E-3,-9.292960167E-4,-1.218957901E-1,1.219382455E-1
6.346581414E0,2.065774798E-2,2.073848248E-2,-1.468439102E-1,1.497329662E-1
6.351632039E0,3.920385242E-2,-1.694709063E-2,-1.573553085E-1,1.630485788E-1
6.356654643E0,3.846284747E-2,-1.133054495E-2,-2.129383087E-1,2.166806295E-1
6.361705268E0,-9.971678257E-3,-2.910023928E-2,-2.134609222E-1,2.156660001E-1
6.366755893E0,-5.775630474E-3,-2.719050646E-2,-1.665115356E-1,1.688157962E-1
6.371806518E0,-3.961038589E-2,-2.250003815E-2,-1.508703232E-1,1.575978706E-1
6.376857143E0,-4.449239373E-2,-4.118478298E-2,-1.757707596E-1,1.859331046E-1
6.381907768E0,-5.868008733E-2,-4.969227314E-2,-1.363601685E-1,1.565463835E-1
6.386953393E0,-1.368412077E-1,-9.334945679E-2,-7.593059540E-2,1.822226455E-1
6.392004070E0,-1.571308672E-1,-1.100953817E-1,-1.015501022E-1,2.170795379E-1
6.397054695E0,-1.867749095E-1,-1.026439071E-1,-1.008501053E-1,2.357782480E-1
6.402105320E0,-2.019439936E-1,-1.258360147E-1,-2.416324615E-2,2.391650928E-1
6.407155945E0,-2.098374069E-1,-1.130589247E-1,6.739616394E-3,2.384522598E-1
6.412206570E0,-2.130032480E-1,-6.466799974E-2,5.637931824E-2,2.296322307E-1
6.417277977E0,-1.566233337E-1,-7.834160328E-2,3.196144104E-2,1.780163172E-1
6.422328602E0,-1.409700811E-1,-8.252590895E-2,6.002330780E-2,1.740284083E-1
6.427379279E0,-1.134298742E-1,-6.060385704E-2,8.073616028E-2,1.518469342E-1
6.432429852E0,-5.029842257E-2,-1.522237062E-2,3.002643585E-2,6.052469522E-2
6.437480477E0,-9.076684713E-3,-8.385360241E-3,5.101680756E-2,5.249204821E-2
6.442531102E0,-8.638292551E-3,-2.531069517E-2,6.707668304E-2,7.221172202E-2
6.447575112E0,2.960544825E-2,2.989649773E-3,7.824897766E-2,8.371572777E-2
6.452625737E0,5.314201117E-2,3.566163778E-2,1.320943832E-1,1.467813062E-1
6.457676362E0,4.302531481E-2,6.553405523E-2,9.760093689E-2,1.251871918E-1
6.462726987E0,6.383103132E-2,7.125025988E-2,1.061649323E-1,1.429055385E-1
6.467777612E0,4.879042506E-2,1.027438641E-1,1.194314957E-1,1.649263149E-1
6.472828237E0,6.956413388E-2,1.195159554E-1,1.112260818E-1,1.774668240E-1
6.477900477E0,7.127606869E-2,1.287184954E-1,6.985759735E-2,1.628766801E-1
6.482951102E0,8.502778411E-2,9.953045845E-2,5.974674225E-2,1.438947860E-1
6.488001727E0,4.874265194E-2,7.983541489E-2,6.161594391E-2,1.120092145E-1
6.493052352E0,1.033240557E-2,9.097850323E-2,4.210376740E-2,1.007798288E-1
6.498102977E0,1.738551259E-2,8.282017708E-2,3.464889526E-2,9.144388291E-2
6.503153602E0,2.756178379E-3,7.241386175E-2,-6.015777588E-3,7.271556555E-2
6.508224227E0,-1.159149408E-2,7.159745693E-2,-1.199722290E-3,7.253962991E-2
6.513274852E0,-4.497957230E-2,8.984482288E-2,2.256965637E-2,1.029788498E-1
6.518325477E0,-4.029679298E-2,8.433711529E-2,1.761627197E-2,9.511526470E-2
6.523376102E0,-2.383542061E-2,5.522012711E-2,8.153915405E-4,6.015026664E-2
6.528426727E0,-7.471352816E-3,4.797995090E-2,1.501846313E-2,5.082766015E-2
6.533477352E0,1.521676779E-3,6.946069002E-2,1.483345032E-2,7.104318551E-2
6.538475789E0,4.131963849E-2,5.295073986E-2,2.413654327E-2,7.136992432E-2
6.543526414E0,5.004990101E-2,4.639804363E-2,6.897640228E-2,9.703357726E-2
6.548577039E0,7.771572471E-2,2.818006277E-2,9.442615509E-2,1.254995959E-1
6.553627664E0,9.095785022E-2,5.287742615E-2,1.766786575E-1,2.056324409E-1
6.558678289E0,1.044056416E-1,7.272398472E-2,1.561021805E-1,2.013881990E-1
6.563728862E0,9.425412118E-2,7.815575600E-2,1.760883331E-1,2.144743869E-1
6.568795477E0,6.524387002E-2,3.588289022E-2,2.291803360E-1,2.409729669E-1
6.573846102E0,7.447907329E-2,5.076187849E-2,1.820745468E-1,2.031625981E-1
6.578896727E0,1.050292701E-1,7.492053509E-2,1.614990234E-1,2.067030931E-1
6.583947352E0,1.093742847E-1,2.250742912E-2,1.910152435E-1,2.212603484E-1
6.588997977E0,6.876018643E-2,2.940070629E-2,1.823244095E-1,1.970648499E-1
6.594048602E0,4.997268319E-2,3.819745779E-2,1.737413406E-1,1.847765361E-1
6.599089904E0,7.427611947E-2,3.954422474E-2,1.129932404E-1,1.408834980E-1
6.604140477E0,5.303955078E-2,5.239343643E-2,8.365535736E-2,1.120557225E-1
6.609191154E0,1.050829887E-2,3.410279751E-2,9.495353699E-2,1.014376623E-1
6.614241727E0,8.736103773E-3,2.278780937E-2,4.917049408E-2,5.489390907E-2
6.619292352E0,-1.718088984E-2,3.517186642E-2,3.464889526E-2,5.227608541E-2
6.624342977E0,-9.751489758E-2,-1.082420349E-4,-3.502845764E-3,9.757785044E-2
6.629416310E0,-9.398168325E-2,2.802014351E-3,-1.757049561E-2,9.565108670E-2
6.634466935E0,-6.925961375E-2,-3.226178885E-2,-2.440452576E-2,8.020784247E-2
6.639517560E0,-9.710934758E-2,-3.124386072E-2,-3.357219696E-2,1.073941182E-1
6.644568237E0,-1.153369546E-1,-6.091171503E-2,-5.693721771E-2,1.423189969E-1
6.649618810E0,-1.333727837E-1,-9.012931585E-2,-4.923915863E-2,1.683332639E-1
6.654669435E0,-1.488511562E-1,-1.094021201E-1,-4.162120819E-2,1.893616000E-1
6.659705112E0,-1.048245728E-1,-1.377592087E-1,-2.933502197E-2,1.755742981E-1
6.664755737E0,-1.135472655E-1,-9.901016951E-2,-3.143787384E-2,1.538971575E-1
6.669806362E0,-8.884382248E-2,-1.148605347E-1,-5.492782593E-2,1.552521603E-1
6.674856987E0,-8.573430777E-2,-1.446275711E-1,4.906654358E-3,1.682010140E-1
6.679907612E0,-8.244663477E-2,-1.382548809E-1,4.284763336E-2,1.665766471E-1
6.684958237E0,-2.936041355E-2,-1.341584325E-1,8.521080017E-2,1.616211600E-1
6.690011622E0,-6.209179759E-2,-9.679180384E-2,1.058425903E-1,1.562904301E-1
6.695062247E0,-9.207499027E-2,-1.117922068E-1,1.429195404E-1,2.034730851E-1
6.700112872E0,-9.827345610E-2,-8.164221048E-2,1.701850891E-1,2.128052802E-1
6.705163497E0,-9.730580449E-2,-9.957242012E-2,1.758680344E-1,2.243048193E-1
6.710214122E0,-1.081236899E-1,-8.926552534E-2,1.815395355E-1,2.293810570E-1
6.715264747E0,-7.100006938E-2,-6.749111414E-2,1.848268509E-1,2.091817993E-1
6.720318810E0,-7.184094191E-2,-8.908122778E-2,1.477479935E-1,1.868851403E-1
6.725369435E0,-6.756341457E-2,-7.538121939E-2,6.589794159E-2,1.207877557E-1
6.730420060E0,-5.355879664E-2,-4.806363583E-2,-2.709674835E-2,7.689532858E-2
6.735470685E0,-2.072289586E-2,-6.879919767E-2,-5.990505219E-2,9.354882838E-2
6.740521310E0,-2.638611197E-2,-5.879664421E-2,-8.529663086E-2,1.069055074E-1
6.745571935E0,-3.009596467E-2,-2.047502995E-2,-1.152372360E-1,1.208495532E-1
6.750620164E0,1.806548238E-2,5.701065063E-3,-1.259422302E-1,1.273589775E-1
6.755670789E0,4.888412356E-2,1.508146524E-2,-1.532030106E-1,1.615186385E-1
6.760721414E0,6.029331684E-2,5.072730780E-2,-1.612539291E-1,1.794752726E-1
6.765772039E0,9.547504783E-2,5.793875456E-2,-1.312541962E-1,1.723370188E-1
6.770822664E0,1.185420156E-1,4.888015985E-2,-1.134128571E-1,1.711839818E-1
6.775873289E0,1.367862523E-1,5.230367184E-2,-9.575653076E-2,1.749727581E-1
6.780912820E0,1.050082147E-1,6.805384159E-2,-1.020402908E-1,1.614629105E-1
6.785963445E0,9.024500847E-2,1.515376568E-2,-7.741546631E-2,1.198622234E-1
6.791014070E0,3.523728251E-2,2.018380165E-2,-5.065727234E-2,6.492465763E-2
6.796064695E0,3.516498208E-2,-6.486177444E-4,-1.940250397E-2,4.016782083E-2
6.801115320E0,-2.967387438E-3,-6.950139999E-3,-1.692390442E-2,1.853451847E-2
6.806165945E0,-3.851476312E-2,-5.828422308E-2,2.591037750E-2,7.451030332E-2
6.811221154E0,-3.101861477E-2,-6.416463852E-2,6.126785278E-2,9.398406824E-2
6.816271779E0,-1.151144505E-2,-3.700542450E-2,6.785392761E-2,7.814134822E-2
6.821322404E0,-2.058973908E-2,-6.983530521E-2,7.204246521E-2,1.024256999E-1
6.826373029E0,-1.747497916E-2,-2.917641401E-2,8.336544037E-2,9.003574112E-2
6.831423654E0,1.205310225E-2,-1.535379887E-2,2.099418640E-2,2.866657071E-2
6.836474279E0,6.063944101E-2,7.485151291E-3,6.692886353E-3,6.146514479E-2
6.841526518E0,9.968358278E-2,1.076447964E-2,-7.444381714E-3,1.005390945E-1
6.846577143E0,1.007096767E-1,1.386272907E-2,-9.983158112E-2,1.424814333E-1
6.851627820E0,1.016310751E-1,8.102655411E-2,-1.558160782E-1,2.029108872E-1
6.856678393E0,1.119632125E-1,5.489087105E-2,-2.065782547E-1,2.412951388E-1
6.861729018E0,1.479879022E-1,7.886558771E-2,-2.236738205E-1,2.795535335E-1
6.866779695E0,1.239844859E-1,1.194378138E-1,-2.620334625E-1,3.135268403E-1
6.871821518E0,1.593808085E-1,1.172369719E-1,-2.430934906E-1,3.134345145E-1
6.876872143E0,1.397153288E-1,1.011235118E-1,-2.243413925E-1,2.829759674E-1
6.881922768E0,1.082053483E-1,1.115474105E-1,-2.532835007E-1,2.971594755E-1
6.886973393E0,7.454738021E-2,6.049257517E-2,-2.297544479E-1,2.490055620E-1
6.892024018E0,4.350617528E-2,5.769181252E-2,-2.349557877E-1,2.458156925E-1
6.897074643E0,9.498298168E-4,2.904331684E-2,-2.187500000E-1,2.206716541E-1
6.902131831E0,-2.219492197E-2,1.050293446E-3,-1.860818863E-1,1.874038049E-1
6.907182456E0,-5.935332179E-2,-2.882820368E-2,-1.964664459E-1,2.072509264E-1
6.912233081E0,-5.570584536E-2,-4.626435041E-2,-1.901550293E-1,2.034759605E-1
6.917283706E0,-6.635499001E-2,-6.087416410E-2,-1.340360641E-1,1.614754317E-1
6.922334279E0,-8.875408769E-2,-7.030564547E-2,-9.028434753E-2,1.448151763E-1
6.927384904E0,-8.489623666E-2,-8.880114555E-2,-5.405521393E-2,1.342198965E-1
6.932433758E0,-1.166211367E-1,-5.938321352E-2,-4.189968109E-2,1.374133867E-1
6.937484383E0,-1.096784472E-1,-6.812447309E-2,2.480125427E-2,1.314739816E-1
6.942535008E0,-8.607342839E-2,-4.581308365E-2,4.343318939E-2,1.067422861E-1
6.947585633E0,-1.197901070E-1,-2.844268084E-2,2.864933014E-2,1.264098095E-1
6.952636258E0,-1.059473455E-1,-4.211133718E-2,6.624317169E-2,1.318573568E-1
6.957686883E0,-7.337951660E-2,-1.786941290E-2,7.027721405E-2,1.031637349E-1
6.962742091E0,-3.415948153E-2,-5.962550640E-3,9.566974640E-2,1.017601227E-1
6.967792716E0,-7.188200951E-3,-3.474444151E-2,9.235858917E-2,9.893915020E-2
6.972843341E0,-1.649349928E-3,-4.468917847E-2,1.033678055E-1,1.126265787E-1
6.977894018E0,3.799498081E-3,-5.075931549E-3,1.095657349E-1,1.097490388E-1
6.982944591E0,-3.365254402E-2,-3.731441498E-2,1.086006165E-1,1.196618284E-1
6.987995216E0,-5.896672606E-2,-2.198117971E-2,1.052818298E-1,1.226560669E-1
6.993042664E0,-3.914281726E-2,-4.741996527E-2,1.138811111E-1,1.294207121E-1
6.998093289E0,-3.854018450E-2,-1.573741436E-2,1.295413971E-1,1.360661074E-1
7.003143966E0,-4.270166159E-2,2.507507801E-2,1.735849380E-1,1.805101719E-1
7.008194539E0,-1.585447788E-2,-1.025915146E-3,1.412525177E-1,1.421432050E-1
7.013245216E0,-2.466809750E-2,2.529400587E-2,1.400852203E-1,1.444720413E-1
7.018295789E0,3.346279263E-2,-2.452301979E-2,1.698160172E-1,1.748102305E-1
7.023347039E0,6.766226888E-2,-1.811385155E-4,1.589193344E-1,1.727239714E-1
7.028397664E0,1.468280852E-1,-6.657660007E-3,9.821319580E-2,1.767728567E-1
7.033448289E0,1.255217195E-1,-5.790948868E-3,1.068878174E-1,1.649673987E-1
7.038498914E0,1.233132184E-1,-7.140040398E-3,9.884643555E-2,1.582016050E-1
7.043549591E0,8.545014262E-2,5.937993526E-3,1.217384338E-1,1.488530581E-1
7.048600216E0,2.388709784E-2,-7.171690464E-3,1.206703186E-1,1.232207465E-1
7.053663237E0,-5.393391848E-2,-1.804798841E-2,1.101236343E-1,1.239427783E-1
7.058713810E0,-7.684323192E-2,-1.489907503E-2,1.471834183E-1,1.667027994E-1
7.063764487E0,-3.563433886E-2,-1.610517502E-4,1.554384232E-1,1.594707981E-1
7.068815112E0,-3.547719121E-2,-1.209968328E-2,1.232604980E-1,1.288339389E-1
7.073865737E0,-3.048205376E-2,6.413817406E-3,1.507816315E-1,1.539655580E-1
7.078916362E0,3.330469131E-3,1.484763622E-2,1.472396851E-1,1.480238804E-1
7.083944539E0,5.875423551E-2,3.947925568E-2,9.864139557E-2,1.214116829E-1
7.088995164E0,6.439840794E-2,4.948544502E-2,7.899093628E-2,1.132940079E-1
7.094045789E0,1.274371445E-1,7.351177931E-2,-4.603385925E-3,1.471917072E-1
7.099096414E0,1.832526326E-1,6.413906813E-2,-3.522682190E-2,1.973227721E-1
7.104147039E0,1.603744030E-1,1.049435139E-1,-3.709697723E-2,1.952159726E-1
7.109197664E0,1.709164530E-1,9.595161676E-2,-6.749153137E-2,2.073023239E-1
7.114270060E0,1.620469987E-1,7.548660040E-2,-6.204032898E-2,1.892259471E-1
7.119320737E0,1.597768068E-1,7.463365793E-2,-5.431652069E-2,1.845239695E-1
7.124371362E0,1.095103621E-1,5.531305075E-2,-4.196929932E-2,1.296667848E-1
7.129421987E0,8.302187920E-2,3.177785873E-2,1.774024963E-2,9.064866898E-2
7.134472612E0,4.926702380E-2,-3.163087368E-2,6.028270721E-2,8.403425845E-2
7.139523237E0,1.352584362E-2,-3.744393587E-2,7.871532440E-2,8.821053834E-2
7.144554487E0,1.634907722E-2,-8.364844322E-2,1.421461105E-1,1.657403726E-1
7.149605112E0,-4.246914387E-2,-1.296268702E-1,1.789350510E-1,2.249989025E-1
7.154655737E0,-7.432606816E-2,-1.351113319E-1,1.608152390E-1,2.228025527E-1
7.159706362E0,-5.077537894E-2,-1.242425442E-1,1.405200958E-1,1.943199584E-1
7.164756987E0,-8.650472760E-2,-1.327853799E-1,1.536874771E-1,2.207597464E-1
7.169807612E0,-7.878366113E-2,-9.422850609E-2,1.359176636E-1,1.831924886E-1
7.174852977E0,-9.697973728E-2,-6.117790937E-2,1.468486786E-1,1.863124806E-1
7.179903602E0,-8.849734068E-2,-9.830057621E-3,6.747055054E-2,1.117169841E-1
7.184954227E0,-3.242647648E-2,1.923638582E-2,6.752014160E-4,3.770902827E-2
7.190004904E0,6.588339806E-3,4.784518480E-2,-6.554222107E-2,8.141468340E-2
7.195055529E0,3.566724062E-2,4.042387009E-2,-1.240730286E-1,1.352788148E-1
7.200106154E0,6.436732411E-2,9.489262104E-2,-1.251134872E-1,1.697090057E-1
7.205157820E0,8.790555596E-2,8.494544029E-2,-1.974306107E-1,2.322110261E-1
7.210208445E0,8.963501453E-2,9.679120779E-2,-2.074165344E-1,2.458141422E-1
7.215259070E0,7.904434204E-2,8.047282696E-2,-2.031211853E-1,2.323404825E-1
7.220309747E0,8.215516806E-2,8.848434687E-2,-1.965484619E-1,2.306734687E-1
7.225360372E0,1.448273659E-3,6.856429577E-2,-1.758575439E-1,1.887565520E-1
7.230410997E0,-2.211692929E-2,8.911669254E-3,-1.767826080E-1,1.783834827E-1
7.235470477E0,-6.700938940E-2,-2.854341269E-2,-1.420993805E-1,1.596784851E-1
7.240521154E0,-1.566633284E-1,-6.067609787E-2,-6.258869171E-2,1.792828259E-1
7.245571779E0,-1.792239845E-1,-8.753669262E-2,-6.453704834E-2,2.096400243E-1
7.250622404E0,-2.231493592E-1,-1.473361850E-1,-4.035377502E-2,2.704293162E-1
7.255673029E0,-2.810992002E-1,-1.519672275E-1,7.373809814E-3,3.196328701E-1
7.260723654E0,-2.955792546E-1,-1.543592215E-1,9.593009949E-3,3.335953999E-1
7.265764435E0,-2.862277627E-1,-1.903290749E-1,4.692077637E-3,3.437637335E-1
7.270815112E0,-2.389947474E-1,-1.787763834E-1,2.123165131E-2,2.992160884E-1
7.275865737E0,-2.133153975E-1,-1.605303884E-1,3.291893005E-2,2.689927887E-1
7.280916362E0,-1.732767820E-1,-1.499024630E-1,4.455089569E-2,2.334103123E-1
7.285966987E0,-1.119638681E-1,-1.301933527E-1,1.336193085E-2,1.722346018E-1
7.291017612E0,-7.937607169E-2,-8.473837376E-2,-1.515865326E-2,1.170937125E-1
7.296066727E0,-4.356503487E-3,-7.762134075E-2,-9.571075439E-2,1.233069348E-1
7.301117404E0,2.489879727E-2,-2.305561304E-2,-5.681419373E-2,6.617676335E-2
7.306168029E0,4.895901680E-2,2.155834436E-2,-6.101226807E-2,8.114335704E-2
7.311218654E0,5.578970909E-2,4.150688648E-3,-6.045150757E-2,8.236567625E-2
7.316269279E0,7.646048069E-2,3.456002474E-2,-1.003103256E-1,1.307775281E-1
7.321319904E0,6.578898430E-2,2.445101738E-2,-9.234809875E-2,1.159923017E-1
7.326374643E0,7.410621643E-2,6.921970844E-2,-2.033042908E-2,1.034235258E-1
7.331425268E0,2.990084887E-2,4.705840349E-2,-4.156494141E-2,6.954278148E-2
7.336475893E0,6.922787428E-2,3.459638357E-2,-6.499767303E-2,1.010648595E-1
7.341526570E0,5.111837387E-2,1.071453094E-3,-6.212520599E-2,8.045978734E-2
7.346577195E0,1.678302884E-2,8.309245110E-3,-2.601528168E-2,3.205477331E-2
7.351627820E0,-2.423271537E-2,-2.019596100E-2,3.042221069E-4,3.154669374E-2
7.356676987E0,-8.710026741E-4,8.757233620E-3,2.517700195E-4,8.804043075E-3
7.361727612E0,-1.072180271E-2,4.716712236E-2,1.444911957E-2,5.048238843E-2
7.366778237E0,-2.271407843E-2,3.769165277E-2,2.408027649E-3,4.407253844E-2
7.371828914E0,3.390073776E-3,2.374476194E-2,2.846050262E-2,3.721970620E-2
7.376879539E0,8.248835802E-3,5.044692755E-2,-3.356933594E-4,5.111798589E-2
7.381930164E0,3.940612078E-2,5.802631378E-2,-3.843307495E-4,7.014301930E-2
7.386977299E0,6.327286363E-2,5.608683825E-2,-4.081535339E-2,9.388866688E-2
7.392027924E0,1.083289087E-1,8.277946711E-2,1.647949219E-2,1.373286798E-1
7.397078549E0,1.077303886E-1,9.737944603E-2,4.397392273E-3,1.452856848E-1
7.402129227E0,1.116439998E-1,1.048970819E-1,1.614952087E-2,1.540408631E-1
7.407179852E0,1.082105041E-1,1.076132655E-1,2.779197693E-2,1.551209918E-1
7.412230477E0,9.279191494E-2,1.054641008E-1,4.646587372E-2,1.479597697E-1
7.417280477E0,9.177517891E-2,8.661216497E-2,5.073928833E-2,1.360103892E-1
7.422331154E0,7.879719138E-2,7.262384892E-2,6.685352325E-2,1.263036594E-1
7.427381779E0,5.147808790E-2,5.126863718E-2,8.285140991E-2,1.101944773E-1
7.432432404E0,2.434256673E-2,4.651689529E-2,8.447742462E-2,9.946264311E-2
7.437483029E0,2.362009883E-2,2.744984627E-2,1.241073608E-1,1.292827914E-1
7.442533706E0,6.438970566E-3,-1.774042845E-2,8.503437042E-2,8.710354354E-2
7.447587664E0,-5.579799414E-3,-3.265023232E-3,1.175737381E-1,1.177513415E-1
7.452638289E0,-2.209734917E-2,-2.227431536E-2,7.859134674E-2,8.462291503E-2
7.457688914E0,-5.734547973E-2,-7.009506226E-4,4.943752289E-2,7.571699972E-2
7.462739539E0,-8.022603393E-2,1.825773716E-2,4.192256927E-2,9.234209928E-2
7.467790164E0,-9.590941668E-2,2.992212772E-2,4.634189606E-2,1.106414085E-1
7.472840789E0,-9.485343099E-2,3.207916021E-2,7.209682465E-2,1.233863769E-1
7.477921987E0,-8.644038439E-2,3.647452593E-2,6.915092468E-2,1.165511968E-1
7.482972612E0,-6.386733055E-2,5.016744137E-2,2.110576630E-2,8.391222471E-2
7.488023289E0,-7.702341676E-2,1.974880695E-3,-1.228046417E-2,7.802125789E-2
7.493073914E0,-4.256314039E-2,1.816475391E-2,-7.625961304E-2,8.920262208E-2
7.498124539E0,-8.706569672E-3,3.896820545E-2,-9.458446503E-2,1.026671633E-1
7.503175164E0,-1.329293847E-2,1.436150074E-2,-8.662414551E-2,8.880708025E-2
7.508195737E0,-1.523345709E-3,2.554440498E-2,-1.048727036E-1,1.079496232E-1
7.513246362E0,-1.385670900E-2,6.973952055E-2,-8.733558655E-2,1.126193313E-1
7.518296987E0,5.452886224E-2,8.506238461E-2,-6.995201111E-2,1.228913746E-1
7.523347612E0,4.158437252E-2,7.423567772E-2,-9.073066711E-2,1.243874987E-1
7.528398237E0,3.351503611E-2,7.073986530E-2,-8.046054840E-2,1.122554499E-1
7.533448862E0,4.426932335E-2,9.351545572E-2,-6.792163849E-2,1.237669682E-1
7.538506518E0,9.805798531E-3,1.068640351E-1,-5.550670624E-2,1.208183352E-1
7.543557143E0,4.209369421E-2,6.794375181E-2,-6.221103668E-2,1.012839849E-1
7.548607820E0,3.141713142E-2,4.376429319E-2,-3.323554993E-2,6.330048408E-2
7.553658445E0,-2.418524027E-2,5.750894547E-3,-2.114105225E-2,3.263346021E-2
7.558709070E0,-3.424105048E-2,-3.231227398E-3,-1.391792297E-2,3.710254639E-2
7.563759695E0,-3.456306458E-2,1.889467239E-2,3.125000000E-2,5.028097630E-2
7.568809070E0,-8.967566490E-2,-8.946239948E-3,5.226802826E-2,1.041811253E-1
7.573859695E0,-1.279809773E-1,-1.978206635E-2,7.308864594E-2,1.487024239E-1
7.578910372E0,-1.257992089E-1,-3.295987844E-2,8.422851562E-2,1.549394636E-1
7.583960997E0,-1.523185372E-1,-3.653776646E-2,1.332759857E-1,2.056658298E-1
7.589011622E0,-1.597890556E-1,-5.455911160E-2,1.747970581E-1,2.430293202E-1
7.594062247E0,-1.409266591E-1,-5.132013559E-2,1.732397079E-1,2.291420432E-1
7.599110268E0,-1.219848990E-1,-8.422404528E-2,1.931247711E-1,2.434567366E-1
7.604160893E0,-9.825053811E-2,-8.618485928E-2,2.223720551E-1,2.579347380E-1
7.609211518E0,-7.193407416E-2,-7.419586182E-2,1.967821121E-1,2.222672639E-1
7.614262143E0,-3.603044152E-2,-5.544543266E-2,1.429328918E-1,1.574871433E-1
7.619312768E0,-3.813028336E-2,-3.241765499E-2,1.275787354E-1,1.370443599E-1
7.624363393E0,-3.746044636E-2,-2.155661583E-2,8.624839783E-2,9.647154428E-2
7.629409122E0,-4.619473219E-2,-3.702002764E-2,1.439189911E-2,6.092259423E-2
7.634459695E0,-6.910923123E-2,-2.573966980E-3,1.678466797E-2,7.116485247E-2
7.639510372E0,-6.358292699E-2,-2.790534496E-2,7.275581360E-3,6.981712516E-2
7.644560997E0,-1.792714000E-2,1.663804054E-3,2.583503723E-3,1.818859763E-2
7.649611622E0,-2.738949656E-2,2.164310217E-2,9.792327881E-3,3.625600749E-2
7.654662247E0,-1.131981611E-3,1.305848360E-2,9.806632996E-3,1.636995501E-2
7.659729747E0,2.030783892E-2,4.745531082E-2,2.169322968E-2,5.599116949E-2
7.664780372E0,4.875147343E-2,5.786824226E-2,9.723663330E-3,7.628885405E-2
7.669831049E0,4.860770702E-2,2.817499638E-2,2.633953094E-2,6.205087021E-2
7.674881674E0,6.520208716E-2,5.378574133E-2,3.091144562E-2,8.999853116E-2
7.679932299E0,8.171024919E-2,5.547988415E-2,1.881408691E-2,1.005412962E-1
7.684982924E0,2.930262685E-2,5.969661474E-2,6.619834900E-2,9.383256984E-2
7.690031779E0,6.533464789E-2,9.254324436E-2,5.616664886E-2,1.264419263E-1
7.695082404E0,9.403184056E-2,1.037290692E-1,6.760406494E-2,1.554735233E-1
7.700133081E0,6.806501746E-2,9.080815315E-2,4.571914673E-2,1.223487134E-1
7.705183706E0,9.241336584E-2,9.214639664E-2,7.154560089E-2,1.488286317E-1
7.710234279E0,9.291586280E-2,7.891237736E-2,5.680179596E-2,1.344877871E-1
7.715284956E0,1.221935749E-1,7.958000898E-2,4.223155975E-2,1.518148616E-1
7.720336466E0,1.084322631E-1,5.644404888E-2,-7.228851318E-4,1.222456907E-1
7.725387143E0,9.933623672E-2,8.545511961E-2,1.832008362E-3,1.310481654E-1
7.730437768E0,1.164155304E-1,8.546966314E-2,-5.262851715E-2,1.537120680E-1
7.735488393E0,8.809861541E-2,7.817107439E-2,-1.018733978E-1,1.557249887E-1
7.740539018E0,6.450819969E-2,1.183400750E-1,-5.806541443E-2,1.467558296E-1
7.745589643E0,4.359826446E-2,8.685868979E-2,-4.312038422E-2,1.063231310E-1
7.750639279E0,5.834770203E-2,9.370577335E-2,-1.043272018E-1,1.518861130E-1
7.755689904E0,2.547216415E-2,9.347808361E-2,-1.151466370E-1,1.504849868E-1
7.760740581E0,3.102689981E-2,7.212823629E-2,-1.116352081E-1,1.364828585E-1
7.765791206E0,2.450138330E-2,4.403817654E-2,-1.390590668E-1,1.479091033E-1
7.770841831E0,4.638046026E-2,1.179587841E-2,-1.187801361E-1,1.280586216E-1
7.775892456E0,5.119234324E-2,3.947365284E-2,-8.920288086E-2,1.101634206E-1
7.780961727E0,6.784781814E-2,1.502448320E-2,-8.128070831E-2,1.069374353E-1
7.786012352E0,7.244163752E-2,4.087996483E-2,-7.819557190E-2,1.141643983E-1
7.791063029E0,4.853853583E-2,3.336405754E-2,-5.138778687E-2,7.816555786E-2
7.796113654E0,3.676003218E-2,1.656234264E-2,8.444786072E-3,4.119375646E-2
7.801164279E0,2.761995792E-2,9.563922882E-3,8.383750916E-3,3.040753157E-2
7.806214904E0,3.281787038E-2,-4.706084728E-3,-3.679561615E-2,4.952854952E-2
7.811258185E0,2.139896154E-2,-2.133429050E-2,-2.219772339E-2,3.749408527E-2
7.816308810E0,7.696419954E-3,-1.185160875E-2,-7.707595825E-3,1.609666250E-2
7.821359487E0,-1.782596111E-2,-1.221275330E-2,-1.469993591E-2,2.613435189E-2
7.826410112E0,2.338370681E-2,-5.545794964E-3,-4.300498962E-2,4.926441635E-2
7.831460737E0,1.435941458E-2,1.521217823E-2,-1.405334473E-2,2.520118353E-2
7.836511362E0,4.337549210E-2,2.144503593E-2,2.785682678E-3,4.846733858E-2
7.841546206E0,5.537211895E-2,1.813107729E-2,-1.140499115E-2,5.937071116E-2
7.846596831E0,2.905791998E-2,1.484489441E-2,7.771492004E-3,3.354295293E-2
7.851647508E0,3.385803103E-2,4.965418577E-2,-6.474494934E-3,6.044686522E-2
7.856698133E0,3.873533010E-2,3.424251080E-2,2.691841125E-2,5.828873140E-2
7.861748758E0,1.517844200E-2,8.305180073E-2,4.341316223E-2,9.493518505E-2
7.866799383E0,2.512764931E-2,5.311363935E-2,4.314041138E-2,7.289411869E-2
7.871856987E0,1.119610667E-2,3.065973520E-2,6.186389923E-2,6.994650953E-2
7.876907612E0,-1.206126809E-2,2.735114098E-2,3.292655945E-2,4.447153492E-2
7.881958289E0,-3.506392241E-2,4.239082336E-4,6.600379944E-3,3.568225565E-2
7.887008914E0,-5.091309547E-2,-3.562980890E-2,3.035831451E-2,6.916107166E-2
7.892059539E0,-2.366229892E-2,-2.149659395E-2,5.155372620E-2,6.066131079E-2
7.897110164E0,-5.360373855E-2,2.070605755E-3,7.494640350E-2,9.216621720E-2
7.902156310E0,-6.672820449E-2,6.380617619E-3,3.400516510E-2,7.516459811E-2
7.907206935E0,-6.544607878E-2,2.015155554E-2,1.478862762E-2,7.005696200E-2
7.912257612E0,-5.714765191E-2,5.528926849E-4,4.561328888E-2,7.312135072E-2
7.917308237E0,-5.846819282E-2,1.432567835E-2,2.392196655E-2,6.477665563E-2
7.922358862E0,-2.409681678E-2,8.820891380E-3,1.430416107E-2,2.937811647E-2
7.927409487E0,-3.502103686E-2,-1.330608130E-2,3.328323364E-2,5.011285727E-2
7.932457872E0,-8.144676685E-4,-1.933455467E-3,5.447006226E-2,5.451045120E-2
7.937508497E0,-4.759559035E-2,7.080495358E-3,8.735084534E-2,9.972784875E-2
7.942559122E0,-9.387385845E-2,-4.573941231E-2,2.731704712E-2,1.079380202E-1
7.947609799E0,-8.502927423E-2,-6.723403931E-4,3.905200958E-2,9.357076984E-2
7.952660372E0,-1.118349433E-1,-2.956748009E-2,6.493949890E-2,1.326590703E-1
7.957711049E0,-1.050166190E-1,-7.243031263E-2,1.459789276E-2,1.284045907E-1
7.962755477E0,-1.051795185E-1,-1.005285978E-1,6.682109833E-2,1.601055566E-1
7.967806102E0,-9.083905816E-2,-8.088970184E-2,-1.440715790E-2,1.224844666E-1
7.972856727E0,-6.696867943E-2,-9.224915504E-2,-3.081512451E-2,1.180859116E-1
7.977907352E0,-8.818098903E-2,-1.272742152E-1,-6.132698059E-2,1.665401190E-1
7.982957977E0,-8.547013998E-2,-1.784849167E-1,-1.058492661E-1,2.244238789E-1
7.988008602E0,-7.080048323E-2,-1.697759628E-1,-1.357507706E-1,2.286150863E-1
7.993060424E0,-9.699290991E-2,-1.871085763E-1,-1.202993393E-1,2.426709190E-1
7.998111049E0,-1.114068031E-1,-2.113737464E-1,-7.173919678E-2,2.494731424E-1
8.003161674E0,-1.283887625E-1,-2.187036276E-1,-6.399154663E-2,2.615528036E-1
8.008212299E0,-1.383154988E-1,-2.211196423E-1,-3.257274628E-2,2.628422668E-1
8.013262924E0,-1.458102465E-1,-2.019957900E-1,2.707767487E-2,2.505915554E-1
8.018313549E0,-1.769632697E-1,-2.210506797E-1,1.028623581E-1,3.012641142E-1
8.023368237E0,-1.887212992E-1,-2.139878869E-1,1.542825699E-1,3.243603796E-1
8.028418862E0,-1.861196160E-1,-2.071680427E-1,1.078929901E-1,2.986637017E-1
8.033469539E0,-1.664200425E-1,-2.339422703E-1,7.381725311E-2,2.964348212E-1
8.038520164E0,-1.490423083E-1,-2.157508731E-1,2.581691742E-2,2.634930021E-1
8.043570789E0,-1.626775265E-1,-2.383290529E-1,-2.888965607E-2,2.899988402E-1
8.048621414E0,-1.168445349E-1,-1.990823746E-1,-3.799724579E-2,2.339449249E-1
