"Time (s)","Acceleration x (m/s^2)","Acceleration y (m/s^2)","Acceleration z (m/s^2)"
5.267713900E-2,2.219955027E-1,2.529049397E0,9.560838699E0
5.771536800E-2,5.431050062E-2,2.476348400E0,9.812366486E0
6.275365000E-2,-1.755449921E-2,2.524258614E0,9.745292664E0
6.783854600E-2,-1.277475059E-1,2.543422461E0,9.776433945E0
7.287682700E-2,-1.900305003E-1,2.550609112E0,9.821948051E0
7.794474300E-2,-1.876350045E-1,2.562586546E0,9.790806770E0
8.298302500E-2,-2.331494987E-1,2.543422461E0,9.750083923E0
8.804703500E-2,-1.612845063E-1,2.538631439E0,9.735710144E0
9.310198300E-2,-8.702400327E-2,2.584146023E0,9.824343681E0
9.815885800E-2,1.598249935E-2,2.641638041E0,9.817157745E0
1.032345870E-1,1.429439932E-1,2.636847019E0,9.757269859E0
1.082654730E-1,1.884585023E-1,2.672779560E0,9.644681931E0
1.133206810E-1,2.363685071E-1,2.711107492E0,9.465019226E0
1.183668790E-1,3.130244911E-1,2.828486919E0,9.306916237E0
1.233934410E-1,3.441660106E-1,2.862024069E0,9.139230728E0
1.284824520E-1,4.088445008E-1,2.900352001E0,8.969150543E0
1.335359930E-1,4.783140123E-1,2.921911478E0,8.902076721E0
1.385817750E-1,5.046644807E-1,2.909934044E0,8.914053917E0
1.436337540E-1,5.382015109E-1,2.845255613E0,8.997896194E0
1.486654210E-1,4.783140123E-1,2.780576944E0,9.163186073E0
1.537284930E-1,3.633300066E-1,2.715898514E0,9.316497803E0
1.587782330E-1,2.723009884E-1,2.615287542E0,9.512928963E0
1.638221910E-1,1.764809936E-1,2.536236048E0,9.671031952E0
1.688805250E-1,8.784750104E-2,2.481139421E0,9.867463112E0
1.739340660E-1,2.556449920E-2,2.471557617E0,9.960887909E0
1.789604730E-1,-5.576999858E-3,2.440416098E0,1.008305836E1
1.840036500E-1,2.556449920E-2,2.454788923E0,1.023397446E1
1.890723480E-1,2.796000056E-2,2.476348400E0,1.030583954E1
1.941240660E-1,6.389249861E-2,2.459579945E0,1.026032543E1
1.991766710E-1,6.868349761E-2,2.447602510E0,1.021960163E1
2.042454210E-1,1.285710037E-1,2.459579945E0,1.017887783E1
2.092791710E-1,1.836674958E-1,2.452393532E0,1.000400639E1
2.143314620E-1,1.740854979E-1,2.512280941E0,9.836321831E0
2.193810980E-1,2.291820049E-1,2.500303507E0,9.735710144E0
2.244314620E-1,2.196000069E-1,2.514676571E0,9.620726585E0
2.294880770E-1,2.219955027E-1,2.562586546E0,9.572816849E0
2.345383890E-1,2.818830013E-1,2.567377567E0,9.563234329E0
2.395901080E-1,3.273974955E-1,2.586541414E0,9.568025589E0
2.446438060E-1,3.345839977E-1,2.569772959E0,9.582398415E0
2.497097430E-1,3.106290102E-1,2.579355001E0,9.671031952E0
2.547557850E-1,3.106290102E-1,2.564981937E0,9.733315468E0
2.598133890E-1,2.291820049E-1,2.567377567E0,9.745292664E0
2.648795350E-1,8.545199782E-2,2.553004503E0,9.750083923E0
2.699163060E-1,-3.671849892E-2,2.505094528E0,9.671031952E0
2.749641710E-1,-1.157699972E-1,2.493117094E0,9.603958130E0
2.800112020E-1,-2.020079941E-1,2.478744030E0,9.469809532E0
2.850582850E-1,-2.810595036E-1,2.459579945E0,9.347639084E0
2.901146390E-1,-3.026190102E-1,2.469161987E0,9.184745789E0
2.951682850E-1,-3.720884919E-1,2.514676571E0,9.129649162E0
3.002379210E-1,-3.840659857E-1,2.519467592E0,9.105693817E0
3.052833890E-1,-3.744840026E-1,2.543422461E0,9.074552536E0
3.103367750E-1,-3.122009933E-1,2.555399895E0,9.055388451E0
3.153809930E-1,-2.235675007E-1,2.596123457E0,9.005083084E0
3.204421390E-1,-1.708665043E-1,2.646429062E0,8.976337433E0
3.254894830E-1,-1.469115019E-1,2.699130058E0,9.052992821E0
3.305470870E-1,-1.349339932E-1,2.727875948E0,9.179954529E0
3.355951080E-1,-1.133745015E-1,2.732666969E0,9.285356522E0
3.406444310E-1,-1.229564995E-1,2.725480556E0,9.376385689E0
3.457019310E-1,-1.445160061E-1,2.730271578E0,9.476996422E0
3.507415140E-1,-1.277475059E-1,2.744644403E0,9.512928963E0
3.558050560E-1,-1.900305003E-1,2.747040033E0,9.532093048E0
3.609024520E-1,-2.762685120E-1,2.713502884E0,9.589585304E0
3.658854730E-1,-2.906414866E-1,2.699130058E0,9.596771240E0
3.709222960E-1,-2.642909884E-1,2.711107492E0,9.565629959E0
3.759862020E-1,-2.858504951E-1,2.675174952E0,9.544070244E0
3.810360980E-1,-3.145965040E-1,2.684756994E0,9.486578941E0
3.860875040E-1,-3.625065088E-1,2.677570581E0,9.469809532E0
3.911364100E-1,-4.032300115E-1,2.703921080E0,9.539279938E0
3.961853680E-1,-3.481335044E-1,2.672779560E0,9.520115852E0
4.012401600E-1,-3.002234995E-1,2.670383930E0,9.558443069E0
4.062969830E-1,-3.074100018E-1,2.675174952E0,9.601562500E0
4.113445350E-1,-3.002234995E-1,2.665592909E0,9.656659126E0
4.163964620E-1,-2.906414866E-1,2.679965973E0,9.647076607E0
4.214450560E-1,-2.786639929E-1,2.648824453E0,9.721337318E0
4.265022430E-1,-2.858504951E-1,2.646429062E0,9.759665489E0
4.315485460E-1,-3.074100018E-1,2.670383930E0,9.793202400E0
4.366242230E-1,-2.954325080E-1,2.727875948E0,9.742897034E0
4.416611500E-1,-2.403360009E-1,2.802136421E0,9.745292664E0
4.467105770E-1,-2.235675007E-1,2.850046396E0,9.697382927E0
4.517617230E-1,-2.044035047E-1,2.862024069E0,9.649472237E0
4.568235460E-1,-1.540980041E-1,2.850046396E0,9.680614471E0
4.618683370E-1,-1.612845063E-1,2.864419460E0,9.642286301E0
4.669289620E-1,-1.924259961E-1,2.814114094E0,9.606353760E0
4.719731810E-1,-2.475225031E-1,2.804532051E0,9.687800407E0
4.770256810E-1,-2.523134947E-1,2.782972574E0,9.704568863E0
4.820789100E-1,-2.594999969E-1,2.754226446E0,9.666240692E0
4.871223480E-1,-2.451270074E-1,2.737457991E0,9.644681931E0
4.921837540E-1,-2.307540029E-1,2.739853382E0,9.627913475E0
4.972352640E-1,-1.876350045E-1,2.732666969E0,9.637495041E0
5.022925560E-1,-1.732620001E-1,2.739853382E0,9.594375610E0
5.073322430E-1,-1.756574959E-1,2.756622076E0,9.637495041E0
5.123861500E-1,-1.109789982E-1,2.768599510E0,9.678218842E0
5.174428160E-1,-1.301430017E-1,2.759017467E0,9.627913475E0
5.224912540E-1,-1.493069977E-1,2.792554617E0,9.580002785E0
5.275396910E-1,-1.469115019E-1,2.768599510E0,9.515324593E0
5.325847430E-1,-1.157699972E-1,2.754226446E0,9.457832336E0
5.376353160E-1,-1.469115019E-1,2.792554617E0,9.369198799E0
5.426672430E-1,-1.421204954E-1,2.838068962E0,9.249423981E0
5.477045870E-1,-1.804485023E-1,2.871606112E0,9.167977333E0
5.527591710E-1,-2.642909884E-1,2.869210482E0,9.069761276E0
5.578042750E-1,-2.810595036E-1,2.874001503E0,9.019455910E0
5.628425040E-1,-3.696930110E-1,2.826091528E0,8.959568024E0
5.680307850E-1,-4.367670119E-1,2.809323072E0,8.978732109E0
5.729804210E-1,-5.158184767E-1,2.802136421E0,9.093716621E0
5.780150040E-1,-5.613330007E-1,2.763808489E0,9.230259895E0
5.830556290E-1,-5.948699713E-1,2.689548016E0,9.369198799E0
5.881119830E-1,-6.260114908E-1,2.658406496E0,9.457832336E0
5.931576600E-1,-6.739215255E-1,2.663197517E0,9.563234329E0
5.982021390E-1,-7.002720237E-1,2.660801888E0,9.690196037E0
6.032726600E-1,-7.625550032E-1,2.658406496E0,9.800389290E0
6.083264100E-1,-8.104649782E-1,2.653615475E0,9.788411140E0
6.133764620E-1,-8.272334933E-1,2.632055998E0,9.829134941E0
6.184222960E-1,-8.631659746E-1,2.603310108E0,9.718941689E0
6.234724000E-1,-8.559795022E-1,2.586541414E0,9.582398415E0
6.285295870E-1,-8.511884809E-1,2.569772959E0,9.524906158E0
6.335839100E-1,-7.913010120E-1,2.581750393E0,9.395549774E0
6.386228680E-1,-7.386000156E-1,2.586541414E0,9.227864265E0
6.436710460E-1,-6.978765130E-1,2.622473955E0,9.146417618E0
6.487266180E-1,-6.571530104E-1,2.660801888E0,9.055388451E0
6.537863060E-1,-5.733104944E-1,2.656011105E0,8.976337433E0
6.588393790E-1,-5.086320043E-1,2.656011105E0,8.997896194E0
6.638870870E-1,-4.295805097E-1,2.644033432E0,8.985918999E0
6.689404730E-1,-4.032300115E-1,2.656011105E0,9.055388451E0
6.739867230E-1,-3.912524879E-1,2.629660606E0,9.213491440E0
6.790376080E-1,-3.984389901E-1,2.596123457E0,9.373990059E0
6.840932850E-1,-4.080210030E-1,2.541027069E0,9.603958130E0
6.891833890E-1,-4.415580034E-1,2.517071962E0,9.762061119E0
6.941931290E-1,-4.607219994E-1,2.459579945E0,9.800389290E0
6.992488580E-1,-4.942589998E-1,2.457184553E0,9.960887909E0
7.043134930E-1,-5.182139874E-1,2.416460991E0,1.005191612E1
7.093506290E-1,-5.733104944E-1,2.387715101E0,1.006149864E1
7.144060980E-1,-5.757060051E-1,2.394901514E0,9.994424820E0
7.194495870E-1,-5.565419793E-1,2.361364603E0,9.905791283E0
7.244908890E-1,-4.966545105E-1,2.385319471E0,9.747688293E0
7.295403160E-1,-4.703040123E-1,2.387715101E0,9.551257133E0
7.346248480E-1,-4.391624928E-1,2.406878948E0,9.350034714E0
7.396683370E-1,-3.385514915E-1,2.469161987E0,9.215887070E0
7.447248480E-1,-2.762685120E-1,2.524258614E0,9.002687454E0
7.497723480E-1,-2.547090054E-1,2.593728065E0,8.787092209E0
7.548240660E-1,-2.067990005E-1,2.612891912E0,8.720018387E0
7.598796910E-1,-2.067990005E-1,2.656011105E0,8.676899910E0
7.649067750E-1,-2.115900069E-1,2.656011105E0,8.724809647E0
7.700339100E-1,-2.187764943E-1,2.632055998E0,8.844584465E0
7.750341710E-1,-1.780530065E-1,2.651220083E0,8.959568024E0
7.800922430E-1,-1.684709936E-1,2.679965973E0,9.038619995E0
7.851291180E-1,-2.427314967E-1,2.648824453E0,9.132044792E0
7.901663060E-1,-2.547090054E-1,2.629660606E0,9.290147781E0
7.952252640E-1,-2.690820098E-1,2.610496521E0,9.381176949E0
8.002665140E-1,-2.954325080E-1,2.555399895E0,9.462623596E0
8.053177640E-1,-3.217830062E-1,2.526654005E0,9.524906158E0
8.103660460E-1,-3.409470022E-1,2.483535051E0,9.486578941E0
8.154150560E-1,-4.080210030E-1,2.466766596E0,9.512928963E0
8.204675560E-1,-4.942589998E-1,2.428438425E0,9.462623596E0
8.255205770E-1,-5.613330007E-1,2.414065599E0,9.424295425E0
8.305737020E-1,-5.900790095E-1,2.399692535E0,9.412318230E0
8.356238060E-1,-5.637285113E-1,2.435625076E0,9.400340080E0
8.406707850E-1,-4.750950038E-1,2.514676571E0,9.369198799E0
8.457122430E-1,-3.457379937E-1,2.593728065E0,9.275774956E0
8.507995870E-1,-1.924259961E-1,2.672779560E0,9.206304550E0
8.558341710E-1,-6.546449661E-2,2.732666969E0,9.120066643E0
8.608803680E-1,2.316899970E-2,2.797345400E0,9.045806885E0
8.659335460E-1,1.141979992E-1,2.857233047E0,9.093716621E0
8.709896390E-1,1.213845015E-1,2.859628439E0,9.136835098E0
8.760342750E-1,9.503400326E-2,2.845255613E0,9.263796806E0
8.810823480E-1,6.628800184E-2,2.862024069E0,9.282960892E0
8.861421390E-1,3.035550006E-2,2.883583546E0,9.259005547E0
8.911906290E-1,-1.995000057E-2,2.842859983E0,9.232655525E0
8.962640660E-1,-1.037925035E-1,2.830882549E0,9.179954529E0
9.013813060E-1,-1.564934999E-1,2.876396894E0,9.079343796E0
9.063344830E-1,-1.780530065E-1,2.828486919E0,8.935613632E0
9.113875040E-1,-1.229564995E-1,2.840464592E0,8.899681091E0
9.164236500E-1,-1.995000057E-2,2.900352001E0,8.799070358E0
9.214884410E-1,6.628800184E-2,2.977008104E0,8.755950928E0
9.265410980E-1,1.692945063E-1,3.020127058E0,8.751159668E0
9.316059410E-1,2.411594987E-1,3.051268578E0,8.844584465E0
9.366465140E-1,3.609344959E-1,3.106364965E0,8.880517006E0
9.416932330E-1,4.088445008E-1,3.139902115E0,8.914053917E0
9.467616710E-1,4.040535092E-1,3.135111094E0,8.933218002E0
9.518013060E-1,4.208219945E-1,3.115947008E0,9.062575340E0
9.568498480E-1,3.920759857E-1,3.089596510E0,9.170372963E0
9.619112020E-1,3.441660106E-1,3.041686535E0,9.278169632E0
9.669399520E-1,2.794874907E-1,3.024918079E0,9.345244408E0
9.720290660E-1,2.483460009E-1,2.998567581E0,9.378781319E0
9.770534410E-1,2.339729965E-1,2.941075563E0,9.371594429E0
9.821085980E-1,2.219955027E-1,2.967426062E0,9.306916237E0
9.871705770E-1,2.387640029E-1,2.953052998E0,9.232655525E0
9.922569310E-1,3.010469973E-1,2.981798887E0,9.170372963E0
9.973065140E-1,3.537479937E-1,2.998567581E0,9.098507881E0
1.002353077E0,4.184265137E-1,3.051268578E0,9.088925362E0
1.007416150E0,4.783140123E-1,3.048872948E0,9.141626358E0
1.012459483E0,5.046644807E-1,3.060850382E0,9.263796806E0
1.017507660E0,5.334104896E-1,3.087201118E0,9.306916237E0
1.022569796E0,5.334104896E-1,3.053663969E0,9.433877945E0
1.027569171E0,5.094555020E-1,3.024918079E0,9.527301788E0
1.032618858E0,4.423815012E-1,3.000962973E0,9.520115852E0
1.037702139E0,3.657254875E-1,2.960239410E0,9.654263496E0
1.042712973E0,2.962560058E-1,2.945866585E0,9.714151382E0
1.047770056E0,1.668989956E-1,2.936284542E0,9.704568863E0
1.052824014E0,1.453395039E-1,2.929097891E0,9.757269859E0
1.057889639E0,1.046160012E-1,2.893165588E0,9.754874229E0
1.062938389E0,1.165935025E-1,2.852442026E0,9.663845062E0
1.067987139E0,1.285710037E-1,2.866815090E0,9.594375610E0
1.073035889E0,1.597124934E-1,2.823695898E0,9.548861504E0
1.078084691E0,9.982500225E-2,2.845255613E0,9.488973618E0
1.083133441E0,8.545199782E-2,2.859628439E0,9.429086685E0
1.088185368E0,4.712399840E-2,2.847651005E0,9.369198799E0
1.093234171E0,4.712399840E-2,2.826091528E0,9.347639084E0
1.098282921E0,2.796000056E-2,2.830882549E0,9.352430344E0
1.103331671E0,1.837800071E-2,2.828486919E0,9.302124977E0
1.108380421E0,7.347449660E-2,2.847651005E0,9.333266258E0
1.113429171E0,1.237799972E-1,2.857233047E0,9.357221603E0
1.118495004E0,1.285710037E-1,2.871606112E0,9.309311867E0
1.123543806E0,3.754200041E-2,2.893165588E0,9.350034714E0
1.128592504E0,-7.859999896E-4,2.897956610E0,9.397945404E0
1.133641306E0,-5.109149963E-2,2.866815090E0,9.426691055E0
1.138690108E0,-8.462850004E-2,2.845255613E0,9.429086685E0
1.143738806E0,-4.630050063E-2,2.871606112E0,9.412318230E0
1.148813441E0,-7.025550306E-2,2.866815090E0,9.390758514E0
1.153862191E0,-5.109149963E-2,2.862024069E0,9.393154144E0
1.158910941E0,-3.432299942E-2,2.926702499E0,9.381176949E0
1.163959743E0,1.119150035E-2,2.986589909E0,9.328475952E0
1.169008493E0,3.275100142E-2,2.996171951E0,9.347639084E0
1.174057243E0,7.107900083E-2,3.051268578E0,9.354825974E0
1.179095941E0,1.070114970E-1,3.070432425E0,9.297333717E0
1.184144691E0,9.982500225E-2,3.070432425E0,9.333266258E0
1.189193441E0,8.305650204E-2,3.080014467E0,9.397945404E0
1.194242191E0,8.545199782E-2,3.123133421E0,9.438668251E0
1.199290941E0,1.022204980E-1,3.147088528E0,9.476996422E0
1.204339743E0,4.712399840E-2,3.120738029E0,9.520115852E0
1.209409743E0,1.837800071E-2,3.108760595E0,9.493764877E0
1.214458546E0,2.316899970E-2,3.084805489E0,9.460227966E0
1.219507296E0,-7.972500287E-3,3.032104492E0,9.453041077E0
1.224556046E0,-3.911399841E-2,3.044081926E0,9.414713860E0
1.229604796E0,-5.348699912E-2,3.024918079E0,9.383571625E0
1.234653598E0,-9.421049803E-2,2.993776560E0,9.371594429E0
1.239721827E0,-1.085835025E-1,2.986589909E0,9.385967255E0
1.244770577E0,-1.564934999E-1,3.010545015E0,9.352430344E0
1.249819327E0,-1.684709936E-1,2.993776560E0,9.230259895E0
1.254868129E0,-1.708665043E-1,2.977008104E0,9.158394814E0
1.259916879E0,-2.091944963E-1,2.981798887E0,9.134440422E0
1.264965629E0,-2.235675007E-1,2.967426062E0,9.076948166E0
1.270006618E0,-2.834550142E-1,2.943470955E0,9.000291824E0
1.275055368E0,-2.810595036E-1,2.965030432E0,8.969150543E0
1.280104118E0,-3.169920146E-1,2.931493521E0,9.057784081E0
1.285152921E0,-3.289695084E-1,2.953052998E0,9.160790443E0
1.290201671E0,-3.577154875E-1,2.943470955E0,9.251819611E0
1.295250473E0,-3.720884919E-1,2.962635040E0,9.369198799E0
1.300365577E0,-3.840659857E-1,2.933888912E0,9.457832336E0
1.305414327E0,-4.367670119E-1,2.871606112E0,9.520115852E0
1.310463077E0,-4.535354972E-1,2.895560980E0,9.630308151E0
1.315511879E0,-5.086320043E-1,2.905143023E0,9.702173233E0
1.320560629E0,-5.733104944E-1,2.859628439E0,9.697382927E0
1.325609379E0,-5.876834989E-1,2.864419460E0,9.687800407E0
1.330654275E0,-5.685194731E-1,2.806927443E0,9.603958130E0
1.335703077E0,-5.637285113E-1,2.780576944E0,9.491369247E0
1.340751775E0,-5.852879882E-1,2.766204119E0,9.426691055E0
1.345800577E0,-5.900790095E-1,2.749435425E0,9.393154144E0
1.350849327E0,-6.140339971E-1,2.723084927E0,9.345244408E0
1.355898077E0,-6.236159801E-1,2.682361603E0,9.306916237E0
1.360945212E0,-6.212205291E-1,2.663197517E0,9.290147781E0
1.365993962E0,-6.475710273E-1,2.636847019E0,9.352430344E0
1.371042712E0,-6.858990192E-1,2.660801888E0,9.357221603E0
1.376091514E0,-6.954810023E-1,2.679965973E0,9.400340080E0
1.381140264E0,-7.314134836E-1,2.679965973E0,9.476996422E0
1.386189066E0,-7.721369863E-1,2.718293905E0,9.587189674E0
1.391266358E0,-7.170404792E-1,2.751831055E0,9.654263496E0
1.396315160E0,-6.763169765E-1,2.749435425E0,9.699777603E0
1.401363910E0,-5.804970264E-1,2.780576944E0,9.723732948E0
1.406412660E0,-4.726994932E-1,2.823695898E0,9.551257133E0
1.411461462E0,-4.223940074E-1,2.864419460E0,9.405131340E0
1.416510212E0,-3.912524879E-1,2.929097891E0,9.397945404E0
1.421567608E0,-3.457379937E-1,2.933888912E0,9.340453148E0
1.426616410E0,-2.882460058E-1,2.921911478E0,9.302124977E0
1.431665160E0,-2.882460058E-1,2.897956610E0,9.196722984E0
1.436713962E0,-3.361560106E-1,2.859628439E0,9.163186073E0
1.441762712E0,-3.960435092E-1,2.802136421E0,9.225468636E0
1.446811462E0,-4.223940074E-1,2.780576944E0,9.208700180E0
1.451875837E0,-4.247894883E-1,2.751831055E0,9.211095810E0
1.456924587E0,-4.247894883E-1,2.713502884E0,9.194327354E0
1.461973337E0,-4.415580034E-1,2.689548016E0,9.261401176E0
1.467022139E0,-4.774905145E-1,2.667988539E0,9.316497803E0
1.472070889E0,-5.038409829E-1,2.644033432E0,9.395549774E0
1.477119639E0,-5.469599962E-1,2.596123457E0,9.508137703E0
1.482185785E0,-5.996609926E-1,2.533840418E0,9.623122215E0
1.487234535E0,-6.068475246E-1,2.543422461E0,9.764456749E0
1.492283285E0,-5.852879882E-1,2.548213482E0,9.836321831E0
1.497332087E0,-5.613330007E-1,2.500303507E0,9.855485916E0
1.502380837E0,-5.086320043E-1,2.495512486E0,9.886627197E0
1.507429639E0,-5.182139874E-1,2.471557617E0,9.951305389E0
1.512498285E0,-4.319759905E-1,2.500303507E0,9.924955368E0
1.517547035E0,-3.936479986E-1,2.509885550E0,9.769247055E0
1.522595785E0,-4.032300115E-1,2.531445026E0,9.637495041E0
1.527644587E0,-4.008345008E-1,2.562586546E0,9.527301788E0
1.532693337E0,-3.696930110E-1,2.572168589E0,9.378781319E0
1.537742087E0,-3.481335044E-1,2.584146023E0,9.232655525E0
1.542810212E0,-3.529244959E-1,2.584146023E0,9.177558899E0
1.547858962E0,-3.720884919E-1,2.553004503E0,9.182350159E0
1.552907712E0,-4.463489950E-1,2.514676571E0,9.230259895E0
1.557956514E0,-4.607219994E-1,2.478744030E0,9.251819611E0
1.563005264E0,-4.631175101E-1,2.457184553E0,9.309311867E0
1.568054066E0,-5.014454722E-1,2.438020468E0,9.350034714E0
1.573102087E0,-5.397735238E-1,2.442811489E0,9.369198799E0
1.578150889E0,-5.493555069E-1,2.433229446E0,9.354825974E0
1.583199639E0,-6.044520140E-1,2.457184553E0,9.282960892E0
1.588248389E0,-5.876834989E-1,2.471557617E0,9.223073959E0
1.593297139E0,-5.421689749E-1,2.481139421E0,9.170372963E0
1.598345941E0,-4.774905145E-1,2.517071962E0,9.160790443E0
1.603404691E0,-3.960435092E-1,2.529049397E0,9.112880707E0
1.608453493E0,-3.050144911E-1,2.531445026E0,9.170372963E0
1.613502243E0,-2.810595036E-1,2.541027069E0,9.335661888E0
1.618551046E0,-3.050144911E-1,2.533840418E0,9.472205162E0
1.623599743E0,-3.050144911E-1,2.531445026E0,9.675823212E0
1.628648546E0,-2.451270074E-1,2.507489920E0,9.886627197E0
1.633708025E0,-1.972170025E-1,2.502698898E0,1.002077484E1
1.638756775E0,-1.277475059E-1,2.488326073E0,1.013575935E1
1.643805525E0,-1.109789982E-1,2.490721464E0,1.017169189E1
1.648854327E0,-6.785999984E-2,2.500303507E0,1.012617683E1
1.653903077E0,-5.109149963E-2,2.495512486E0,1.015731812E1
1.658951827E0,-4.150950164E-2,2.485930443E0,1.013575935E1
1.664016671E0,-2.713650092E-2,2.505094528E0,1.005910301E1
1.669065421E0,-7.983750105E-2,2.442811489E0,1.001598358E1
1.674114171E0,-1.996124983E-1,2.387715101E0,9.908186913E0
1.679162973E0,-2.594999969E-1,2.368551016E0,9.905791283E0
1.684211723E0,-3.672975004E-1,2.325432062E0,1.000400639E1
1.689260473E0,-4.271849990E-1,2.260753393E0,1.007108021E1
1.694403077E0,-4.798859954E-1,2.220030069E0,1.011180401E1
1.699451827E0,-5.325869918E-1,2.186492920E0,1.021241474E1
1.704500577E0,-5.924745202E-1,2.121814489E0,1.025792980E1
1.709549327E0,-6.355934739E-1,2.073904514E0,1.028188419E1
1.714598129E0,-6.284070015E-1,2.078695536E0,1.013575935E1
1.719646879E0,-6.044520140E-1,2.093068600E0,9.889022827E0
1.724625785E0,-5.757060051E-1,2.131396532E0,9.694987297E0
1.729674587E0,-5.996609926E-1,2.105046034E0,9.529697418E0
1.734723337E0,-6.595485210E-1,2.117023468E0,9.335661888E0
1.739772087E0,-7.457864881E-1,2.078695536E0,9.254215240E0
1.744820837E0,-8.200470209E-1,2.030785561E0,9.251819611E0
1.749869639E0,-8.607705235E-1,2.021203518E0,9.299729347E0
1.754939431E0,-8.919119835E-1,2.009226084E0,9.342848778E0
1.759988181E0,-8.919119835E-1,2.011621475E0,9.333266258E0
1.765036931E0,-8.416064978E-1,2.047554016E0,9.409922600E0
1.770085681E0,-7.865099907E-1,2.066718102E0,9.453041077E0
1.775134483E0,-6.906899810E-1,2.107441425E0,9.467414856E0
1.780183233E0,-6.020565033E-1,2.121814489E0,9.503347397E0
1.785284483E0,-6.236159801E-1,2.095463991E0,9.536884308E0
1.790333285E0,-7.673460245E-1,2.095463991E0,9.594375610E0
1.795382035E0,-8.368154764E-1,2.093068600E0,9.627913475E0
1.800430785E0,-9.086804986E-1,2.059531450E0,9.666240692E0
1.805479535E0,-9.997094870E-1,2.064322472E0,9.671031952E0
1.810528337E0,-1.016477942E0,2.009226084E0,9.651867867E0
1.815575316E0,-1.028455496E0,2.016412497E0,9.716546059E0
1.820624066E0,-9.733589888E-1,1.987666488E0,9.678218842E0
1.825672816E0,-8.895164728E-1,2.061927080E0,9.639890671E0
1.830721618E0,-8.176515102E-1,2.090672970E0,9.572816849E0
1.835770368E0,-7.026674747E-1,2.160142422E0,9.481787682E0
1.840819118E0,-6.858990192E-1,2.251171589E0,9.350034714E0
1.845892921E0,-6.811079979E-1,2.289499521E0,9.338057518E0
1.850941671E0,-6.763169765E-1,2.284708500E0,9.321289062E0
1.855990421E0,-6.882944703E-1,2.299081564E0,9.383571625E0
1.861039223E0,-7.074584961E-1,2.294290543E0,9.524906158E0
1.866087973E0,-7.074584961E-1,2.279917479E0,9.615935326E0
1.871136723E0,-7.673460245E-1,2.222425461E0,9.704568863E0
1.876200889E0,-8.895164728E-1,2.162538052E0,9.809970856E0
1.881249691E0,-9.709634781E-1,2.133791924E0,9.860276222E0
1.886298441E0,-9.805455208E-1,2.085881948E0,9.910581589E0
1.891347191E0,-9.853364825E-1,2.083486557E0,9.886627197E0
1.896395941E0,-9.781500101E-1,2.016412497E0,9.805179596E0
1.901444691E0,-9.925230145E-1,1.990061998E0,9.644681931E0
1.906513910E0,-1.033246517E0,1.999644041E0,9.438668251E0
1.911562712E0,-1.083552003E0,1.956524968E0,9.261401176E0
1.916611462E0,-1.148230553E0,1.958920479E0,9.093716621E0
1.921660212E0,-1.205722451E0,1.956524968E0,8.997896194E0
1.926708962E0,-1.232072949E0,1.896637559E0,8.949986458E0
1.931757764E0,-1.222491026E0,1.879868984E0,8.995500565E0
1.936828285E0,-1.203326941E0,1.870286942E0,8.983523369E0
1.941877087E0,-1.186558485E0,1.848727465E0,9.052992821E0
1.946925837E0,-1.181767464E0,1.853518486E0,9.211095810E0
1.951974587E0,-1.141044021E0,1.891846538E0,9.364407539E0
1.957023337E0,-1.148230553E0,1.913406014E0,9.465019226E0
1.962072139E0,-1.085947514E0,1.930174470E0,9.596771240E0
1.967144431E0,-1.011687040E0,1.930174470E0,9.742897034E0
1.972193181E0,-9.613814950E-1,1.942152023E0,9.762061119E0
1.977241931E0,-1.009291530E0,1.961315989E0,9.776433945E0
1.982290681E0,-1.033246517E0,1.980479956E0,9.769247055E0
1.987339431E0,-1.093134046E0,1.968502522E0,9.654263496E0
1.992388233E0,-1.155416965E0,1.973293543E0,9.594375610E0
1.997415629E0,-1.236863971E0,1.903823972E0,9.541674614E0
2.002464379E0,-1.265609980E0,1.819981456E0,9.441063881E0
2.007513181E0,-1.268005490E0,1.774466991E0,9.438668251E0
2.012561931E0,-1.313519955E0,1.752907515E0,9.414713860E0
2.017610681E0,-1.361430049E0,1.702602029E0,9.369198799E0
2.022659431E0,-1.435690522E0,1.693019986E0,9.378781319E0
2.027730837E0,-1.445272446E0,1.704997540E0,9.433877945E0
2.032779587E0,-1.406944513E0,1.745720983E0,9.510533333E0
2.037828389E0,-1.354243517E0,1.791235447E0,9.596771240E0
2.042877139E0,-1.308729053E0,1.796026468E0,9.668636322E0
2.047925889E0,-1.227282047E0,1.848727465E0,9.714151382E0
2.052974639E0,-1.148230553E0,1.884660006E0,9.625517845E0
2.058059952E0,-1.047619462E0,1.884660006E0,9.443459511E0
2.063110785E0,-9.973139763E-1,1.925383449E0,9.211095810E0
2.068161671E0,-1.026059985E0,1.934965491E0,9.072156906E0
2.073212504E0,-1.057201505E0,1.920592546E0,8.945195198E0
2.078263337E0,-1.107506990E0,1.899032950E0,8.894889832E0
2.083314223E0,-1.126670957E0,1.827167988E0,8.976337433E0
2.088311358E0,-1.143439531E0,1.712183952E0,9.158394814E0
2.093362191E0,-1.220095515E0,1.623550534E0,9.330870628E0
2.098413077E0,-1.361430049E0,1.520544052E0,9.515324593E0
2.103463910E0,-1.418921947E0,1.448678970E0,9.642286301E0
2.108514743E0,-1.471622944E0,1.434306026E0,9.685404778E0
2.113565629E0,-1.457249999E0,1.518148541E0,9.656659126E0
2.118618181E0,-1.409340024E0,1.578035951E0,9.582398415E0
2.123669014E0,-1.301542521E0,1.590013504E0,9.450646400E0
2.128719848E0,-1.153021455E0,1.599595547E0,9.385967255E0
2.133770733E0,-1.014082551E0,1.590013504E0,9.275774956E0
2.138821566E0,-9.757544994E-1,1.597200036E0,9.167977333E0
2.143872400E0,-1.021268964E0,1.609177470E0,9.129649162E0
2.148925785E0,-1.093134046E0,1.580431461E0,9.088925362E0
2.153976618E0,-1.133857489E0,1.558871984E0,9.163186073E0
2.159027452E0,-1.148230553E0,1.582826972E0,9.266192436E0
2.164078285E0,-1.141044021E0,1.621155024E0,9.318893433E0
2.169129171E0,-1.057201505E0,1.630736947E0,9.364407539E0
2.174180004E0,-1.002104998E0,1.633132458E0,9.393154144E0
2.179242400E0,-1.033246517E0,1.573245049E0,9.488973618E0
2.184293233E0,-1.107506990E0,1.506170988E0,9.534488678E0
2.189344118E0,-1.188953996E0,1.479820490E0,9.496160507E0
2.194394952E0,-1.212908983E0,1.477424979E0,9.438668251E0
2.199445785E0,-1.191349506E0,1.487007022E0,9.215887070E0
2.204496618E0,-1.193745017E0,1.443887949E0,8.993105888E0
2.209545577E0,-1.248841524E0,1.482216001E0,8.878121376E0
2.214596410E0,-1.232072949E0,1.496588945E0,8.899681091E0
2.219647296E0,-1.117089033E0,1.484611511E0,9.050597191E0
2.224698129E0,-1.004500508E0,1.463052034E0,9.256610870E0
2.229748962E0,-8.775389791E-1,1.451074481E0,9.532093048E0
2.234799796E0,-8.200470209E-1,1.386396050E0,9.774038315E0
2.239882296E0,-8.080695271E-1,1.350463510E0,9.944119453E0
2.244933129E0,-8.583750129E-1,1.290575981E0,1.010701275E1
2.249983962E0,-9.637770057E-1,1.269016504E0,1.028188419E1
2.255034796E0,-1.045223951E0,1.266620994E0,1.035135365E1
2.260085629E0,-1.011687040E0,1.283389449E0,1.039207745E1
2.265136462E0,-9.446129799E-1,1.297762513E0,1.035374928E1
2.270163493E0,-8.967030048E-1,1.314530969E0,1.019325066E1
2.275214327E0,-7.553684711E-1,1.369627476E0,9.941723824E0
2.280265160E0,-6.499664783E-1,1.393582463E0,9.718941689E0
2.285315993E0,-5.565419793E-1,1.443887949E0,9.457832336E0
2.290366879E0,-5.182139874E-1,1.530125976E0,9.242237091E0
2.295417712E0,-4.607219994E-1,1.628341556E0,9.055388451E0
2.300495681E0,-4.176029861E-1,1.671460509E0,8.945195198E0
2.305546514E0,-3.361560106E-1,1.704997540E0,8.954777718E0
2.310597348E0,-3.074100018E-1,1.748116493E0,9.026642799E0
2.315648233E0,-2.714774907E-1,1.764884949E0,9.108089447E0
2.320699066E0,-2.403360009E-1,1.750512004E0,9.297333717E0
2.325749900E0,-2.091944963E-1,1.764884949E0,9.460227966E0
2.330774431E0,-1.828439981E-1,1.757698536E0,9.599166870E0
2.335825264E0,-1.493069977E-1,1.721765995E0,9.809970856E0
2.340876150E0,-1.085835025E-1,1.702602029E0,9.994424820E0
2.345926983E0,-9.900149703E-2,1.690624475E0,1.022678757E1
2.350977816E0,-3.911399841E-2,1.657087445E0,1.032739925E1
2.356028650E0,-7.983750105E-2,1.575640559E0,1.038728619E1
2.361070629E0,-1.109789982E-1,1.544499040E0,1.033937645E1
2.366121462E0,-1.660754979E-1,1.484611511E0,1.026511574E1
2.371172296E0,-2.211720049E-1,1.436701536E0,1.004712582E1
2.376223181E0,-2.618955076E-1,1.415142059E0,9.915372849E0
2.381274014E0,-2.858504951E-1,1.357650042E0,9.781225204E0
2.386324848E0,-2.930369973E-1,1.316926479E0,9.668636322E0
2.391385889E0,-2.786639929E-1,1.326508522E0,9.632703781E0
2.396436723E0,-2.427314967E-1,1.326508522E0,9.620726585E0
2.401487556E0,-1.924259961E-1,1.340881467E0,9.603958130E0
2.406538441E0,-1.540980041E-1,1.384000540E0,9.603958130E0
2.411589275E0,-9.181500226E-2,1.482216001E0,9.635099411E0
2.416640108E0,-4.869600013E-2,1.513357520E0,9.697382927E0
2.421681671E0,1.598249935E-2,1.544499040E0,9.735710144E0
2.426732504E0,4.951950163E-2,1.587617993E0,9.838717461E0
2.431783337E0,3.993749991E-2,1.578035951E0,9.984842300E0
2.436834223E0,8.784750104E-2,1.590013504E0,1.018606472E1
2.441885004E0,9.982500225E-2,1.601991057E0,1.031542110E1
2.446935889E0,1.836674958E-1,1.628341556E0,1.027709389E1
2.452030837E0,2.315775007E-1,1.678647041E0,1.022678757E1
2.457081671E0,2.076224983E-1,1.683437943E0,1.022199726E1
2.462132556E0,1.501304954E-1,1.659482956E0,1.018366909E1
2.467183389E0,9.263850003E-2,1.681042552E0,1.007108021E1
2.472234223E0,3.754200041E-2,1.666669488E0,1.002077484E1
2.477285108E0,6.400499959E-3,1.649901032E0,1.005191612E1
2.482328962E0,-4.869600013E-2,1.649901032E0,9.970469475E0
2.487379848E0,-7.265099883E-2,1.621155024E0,9.886627197E0
2.492430681E0,-9.181500226E-2,1.587617993E0,9.802784920E0
2.497481514E0,-1.349339932E-1,1.503775477E0,9.683009148E0
2.502532348E0,-1.948215067E-1,1.455865502E0,9.615935326E0
2.507583233E0,-2.379405051E-1,1.415142059E0,9.498556137E0
2.512611514E0,-2.930369973E-1,1.355254531E0,9.429086685E0
2.517662400E0,-3.193874955E-1,1.345672488E0,9.436272621E0
2.522713233E0,-3.145965040E-1,1.352859020E0,9.481787682E0
2.527764066E0,-2.978279889E-1,1.314530969E0,9.584794044E0
2.532814900E0,-2.666864991E-1,1.319321990E0,9.656659126E0
2.537865785E0,-2.355449945E-1,1.331299543E0,9.694987297E0
2.542946566E0,-1.780530065E-1,1.324113011E0,9.685404778E0
2.547997348E0,-1.373295039E-1,1.338485956E0,9.651867867E0
2.553048233E0,-5.109149963E-2,1.360045552E0,9.582398415E0
2.558099066E0,-3.671849892E-2,1.333695054E0,9.529697418E0
2.563149952E0,-8.941949904E-2,1.331299543E0,9.541674614E0
2.568200733E0,-1.445160061E-1,1.343276978E0,9.675823212E0
2.573244223E0,-1.013970003E-1,1.348067999E0,9.805179596E0
2.578295056E0,-9.421049803E-2,1.307344556E0,9.869858742E0
2.583345941E0,-1.325384974E-1,1.261829972E0,9.960887909E0
2.588396775E0,-1.349339932E-1,1.233083963E0,1.001119328E1
2.593447660E0,-1.588889956E-1,1.221106529E0,1.004952145E1
2.598498441E0,-1.540980041E-1,1.194756031E0,1.016929626E1
2.603556306E0,-1.612845063E-1,1.168405533E0,1.024355698E1
2.608607139E0,-1.636800021E-1,1.182778478E0,1.018127346E1
2.613657973E0,-1.780530065E-1,1.161219001E0,1.015731812E1
2.618708806E0,-2.355449945E-1,1.158823490E0,1.009503555E1
2.623759691E0,-2.475225031E-1,1.192360520E0,1.000879765E1
2.628810525E0,-2.403360009E-1,1.225897551E0,9.867463112E0
2.633862816E0,-2.331494987E-1,1.264225483E0,9.783620834E0
2.638913650E0,-1.636800021E-1,1.266620994E0,9.742897034E0
2.643964483E0,-1.373295039E-1,1.300158024E0,9.661450386E0
2.649015316E0,-9.900149703E-2,1.319321990E0,9.623122215E0
2.654066202E0,-1.061879992E-1,1.340881467E0,9.584794044E0
2.659117035E0,-1.349339932E-1,1.348067999E0,9.565629959E0
2.664163546E0,-1.421204954E-1,1.336090446E0,9.596771240E0
2.669214379E0,-1.540980041E-1,1.350463510E0,9.584794044E0
2.674265264E0,-1.349339932E-1,1.364836454E0,9.441063881E0
2.679316046E0,-1.325384974E-1,1.407955527E0,9.342848778E0
2.684366931E0,-1.636800021E-1,1.429515004E0,9.287752151E0
2.689417764E0,-1.972170025E-1,1.412746549E0,9.357221603E0
2.694476202E0,-2.163809985E-1,1.369627476E0,9.354825974E0
2.699527087E0,-2.163809985E-1,1.314530969E0,9.407526970E0
2.704577868E0,-2.666864991E-1,1.302553535E0,9.481787682E0
2.709628702E0,-3.241784871E-1,1.257038951E0,9.553652763E0
2.714679587E0,-3.313649893E-1,1.225897551E0,9.618330956E0
2.719730421E0,-3.193874955E-1,1.175591946E0,9.680614471E0
2.724781098E0,-3.433425128E-1,1.149241447E0,9.687800407E0
2.729831931E0,-3.433425128E-1,1.098935962E0,9.730919838E0
2.734882816E0,-3.313649893E-1,1.110913515E0,9.809970856E0
2.739933650E0,-2.714774907E-1,1.098935962E0,9.901000023E0
2.744984483E0,-2.283585072E-1,1.108518004E0,9.994424820E0
2.750035316E0,-1.948215067E-1,1.127681971E0,1.013096809E1
2.755076618E0,-1.421204954E-1,1.149241447E0,1.019564629E1
2.760127452E0,-3.911399841E-2,1.180382967E0,1.025313854E1
2.765178337E0,1.609500032E-3,1.204337955E0,1.020283318E1
2.770229171E0,6.400499959E-3,1.223502040E0,1.017648220E1
2.775280004E0,1.358699985E-2,1.218711019E0,1.014773655E1
2.780330837E0,1.837800071E-2,1.235479474E0,1.009263992E1
2.785403754E0,-7.972500287E-3,1.213919997E0,9.994424820E0
2.790454587E0,-4.150950164E-2,1.230688453E0,9.879440308E0
2.795505421E0,-5.588249862E-2,1.230688453E0,9.788411140E0
2.800556254E0,-4.869600013E-2,1.199547052E0,9.711755753E0
2.805607139E0,-6.306900084E-2,1.221106529E0,9.649472237E0
2.810657973E0,-5.348699912E-2,1.221106529E0,9.623122215E0
2.815708441E0,-1.755449921E-2,1.223502040E0,9.623122215E0
2.820759275E0,2.077350020E-2,1.285784960E0,9.580002785E0
2.825810108E0,1.837800071E-2,1.285784960E0,9.618330956E0
2.830860941E0,-2.474099956E-2,1.340881467E0,9.668636322E0
2.835911827E0,1.119150035E-2,1.345672488E0,9.659054756E0
2.840962660E0,6.400499959E-3,1.331299543E0,9.723732948E0
2.846016827E0,3.035550006E-2,1.384000540E0,9.757269859E0
2.851067660E0,7.826550305E-2,1.360045552E0,9.764456749E0
2.856118493E0,3.514650092E-2,1.328904033E0,9.797993660E0
2.861169327E0,-3.181499895E-3,1.333695054E0,9.814762115E0
2.866220212E0,3.035550006E-2,1.369627476E0,9.733315468E0
2.871271046E0,-7.972500287E-3,1.328904033E0,9.637495041E0
2.876316306E0,-5.109149963E-2,1.381605029E0,9.551257133E0
2.881367191E0,-6.785999984E-2,1.374418497E0,9.512928963E0
2.886417973E0,-8.941949904E-2,1.379209518E0,9.493764877E0
2.891468806E0,-7.504650205E-2,1.372022986E0,9.457832336E0
2.896519691E0,-6.785999984E-2,1.376814008E0,9.472205162E0
2.901570525E0,-5.109149963E-2,1.379209518E0,9.393154144E0
2.906622712E0,-7.983750105E-2,1.364836454E0,9.407526970E0
2.911673546E0,-7.025550306E-2,1.417537451E0,9.491369247E0
2.916724431E0,-7.504650205E-2,1.427119493E0,9.479392052E0
2.921775264E0,-3.432299942E-2,1.510962009E0,9.491369247E0
2.926826098E0,-7.859999896E-4,1.561267495E0,9.503347397E0
2.931876983E0,2.316899970E-2,1.590013504E0,9.544070244E0
2.936938806E0,1.598249935E-2,1.628341556E0,9.623122215E0
2.941989639E0,-3.181499895E-3,1.609177470E0,9.702173233E0
2.947040525E0,-1.515899971E-2,1.616364002E0,9.745292664E0
2.952091358E0,4.004999995E-3,1.618759513E0,9.819553375E0
2.957142191E0,1.609500032E-3,1.558871984E0,9.814762115E0
2.962193077E0,-1.276350021E-2,1.568454027E0,9.800389290E0
2.967250421E0,-3.911399841E-2,1.582826972E0,9.807575226E0
2.972301254E0,-6.067350134E-2,1.551685452E0,9.860276222E0
2.977352087E0,-1.133745015E-1,1.525334954E0,9.833926201E0
2.982402921E0,-1.588889956E-1,1.477424979E0,9.898604393E0
2.987453806E0,-1.469115019E-1,1.458261013E0,9.970469475E0
2.992504639E0,-1.061879992E-1,1.400768995E0,9.989633560E0
2.997552243E0,-1.540980041E-1,1.360045552E0,1.002796173E1
3.002603077E0,-2.187764943E-1,1.309739947E0,1.008545303E1
3.007653910E0,-2.355449945E-1,1.300158024E0,1.010222244E1
3.012704743E0,-2.523134947E-1,1.280994058E0,1.011899090E1
3.017755629E0,-2.571044862E-1,1.245061517E0,1.013096809E1
3.022806462E0,-2.642909884E-1,1.297762513E0,1.000640202E1
3.027864483E0,-2.451270074E-1,1.316926479E0,9.891418457E0
3.032915316E0,-1.972170025E-1,1.343276978E0,9.901000023E0
3.037966150E0,-1.397249997E-1,1.398373485E0,9.831530571E0
3.043016983E0,-9.421049803E-2,1.393582463E0,9.771642685E0
3.048067868E0,-1.013970003E-1,1.405560017E0,9.704568863E0
3.053118702E0,-7.504650205E-2,1.443887949E0,9.690196037E0
3.058145421E0,-8.462850004E-2,1.465447545E0,9.716546059E0
3.063196358E0,-5.827800184E-2,1.496588945E0,9.762061119E0
3.068247243E0,-2.474099956E-2,1.530125976E0,9.750083923E0
3.073298129E0,-3.671849892E-2,1.530125976E0,9.778829575E0
3.078349066E0,-7.265099883E-2,1.494193554E0,9.752478600E0
3.083400004E0,-1.421204954E-1,1.458261013E0,9.783620834E0
3.088468441E0,-1.924259961E-1,1.484611511E0,9.790806770E0
3.093519379E0,-2.091944963E-1,1.491798043E0,9.757269859E0
3.098570264E0,-2.307540029E-1,1.467843056E0,9.762061119E0
3.103621202E0,-1.948215067E-1,1.470238447E0,9.733315468E0
3.108672139E0,-2.020079941E-1,1.453469992E0,9.680614471E0
3.113723077E0,-2.523134947E-1,1.470238447E0,9.699777603E0
3.118732087E0,-2.403360009E-1,1.451074481E0,9.687800407E0
3.123783025E0,-2.427314967E-1,1.443887949E0,9.704568863E0
3.128833910E0,-2.834550142E-1,1.419932961E0,9.647076607E0
3.133884848E0,-2.618955076E-1,1.434306026E0,9.678218842E0
3.138935733E0,-2.714774907E-1,1.491798043E0,9.661450386E0
3.143986671E0,-2.906414866E-1,1.472633958E0,9.661450386E0
3.149050681E0,-2.858504951E-1,1.465447545E0,9.656659126E0
3.154101566E0,-3.050144911E-1,1.487007022E0,9.625517845E0
3.159152504E0,-3.193874955E-1,1.477424979E0,9.625517845E0
3.164203441E0,-3.529244959E-1,1.503775477E0,9.623122215E0
3.169254327E0,-3.864614964E-1,1.489402533E0,9.606353760E0
3.174305212E0,-3.864614964E-1,1.518148541E0,9.572816849E0
3.179353389E0,-4.056254923E-1,1.530125976E0,9.584794044E0
3.184404275E0,-4.583264887E-1,1.532521486E0,9.596771240E0
3.189455160E0,-4.703040123E-1,1.599595547E0,9.620726585E0
3.194506098E0,-4.655129910E-1,1.566058517E0,9.582398415E0
3.199557035E0,-4.774905145E-1,1.616364002E0,9.635099411E0
3.204607921E0,-4.942589998E-1,1.587617993E0,9.690196037E0
3.209660004E0,-4.726994932E-1,1.568454027E0,9.675823212E0
3.214710941E0,-4.487445056E-1,1.570849538E0,9.673427582E0
3.219761827E0,-4.367670119E-1,1.568454027E0,9.663845062E0
3.224812764E0,-4.535354972E-1,1.561267495E0,9.663845062E0
3.229863702E0,-4.726994932E-1,1.542103529E0,9.709360123E0
3.234914587E0,-5.301914811E-1,1.549289942E0,9.766852379E0
3.239988910E0,-5.301914811E-1,1.546894550E0,9.821948051E0
3.245039796E0,-5.277959704E-1,1.558871984E0,9.838717461E0
3.250090733E0,-4.750950038E-1,1.537312508E0,9.814762115E0
3.255141671E0,-4.607219994E-1,1.573245049E0,9.745292664E0
3.260192556E0,-4.703040123E-1,1.568454027E0,9.663845062E0
3.265243493E0,-4.703040123E-1,1.594804525E0,9.620726585E0
3.270262764E0,-4.703040123E-1,1.623550534E0,9.615935326E0
3.275313754E0,-4.822815061E-1,1.669064999E0,9.596771240E0
3.280364639E0,-4.391624928E-1,1.690624475E0,9.560838699E0
3.285415577E0,-3.601109982E-1,1.685833454E0,9.556048393E0
3.290466514E0,-2.690820098E-1,1.726557016E0,9.503347397E0
3.295517400E0,-1.996124983E-1,1.714579463E0,9.486578941E0
3.300580577E0,-2.211720049E-1,1.724161506E0,9.580002785E0
3.305631514E0,-2.475225031E-1,1.688228965E0,9.709360123E0
3.310682400E0,-2.858504951E-1,1.700206518E0,9.831530571E0
3.315733285E0,-2.451270074E-1,1.659482956E0,9.920164108E0
3.320784275E0,-2.139855027E-1,1.618759513E0,9.939328194E0
3.325835160E0,-2.930369973E-1,1.609177470E0,1.001119328E1
3.330890368E0,-3.672975004E-1,1.566058517E0,1.006389427E1
3.335941254E0,-4.367670119E-1,1.527730465E0,1.015492344E1
3.340992139E0,-4.343715012E-1,1.551685452E0,1.017887783E1
3.346043129E0,-4.271849990E-1,1.542103529E0,1.018366909E1
3.351094014E0,-4.391624928E-1,1.532521486E0,1.017887783E1
3.356144900E0,-4.080210030E-1,1.534916997E0,1.014054966E1
3.361196983E0,-3.649019897E-1,1.563663006E0,1.001119328E1
3.366247921E0,-3.289695084E-1,1.609177470E0,9.929745674E0
3.371298806E0,-3.457379937E-1,1.594804525E0,9.814762115E0
3.376349796E0,-3.074100018E-1,1.613968492E0,9.709360123E0
3.381400681E0,-3.026190102E-1,1.645110011E0,9.584794044E0
3.386451566E0,-2.954325080E-1,1.628341556E0,9.522510529E0
3.391545473E0,-3.026190102E-1,1.637923479E0,9.505742073E0
3.396596358E0,-3.481335044E-1,1.669064999E0,9.517720222E0
3.401647296E0,-3.696930110E-1,1.690624475E0,9.606353760E0
3.406698233E0,-4.223940074E-1,1.695415497E0,9.699777603E0
3.411749118E0,-4.367670119E-1,1.683437943E0,9.740501404E0
3.416800056E0,-4.511399865E-1,1.673856020E0,9.853090286E0
3.421803077E0,-4.703040123E-1,1.697811007E0,9.929745674E0
3.426854014E0,-5.182139874E-1,1.690624475E0,9.980051041E0
3.431904900E0,-5.373780131E-1,1.664273977E0,1.007826710E1
3.436955785E0,-5.277959704E-1,1.688228965E0,1.014534092E1
3.442006775E0,-5.158184767E-1,1.678647041E0,1.014294529E1
3.447057660E0,-5.206094980E-1,1.673856020E0,1.010940838E1
3.452109223E0,-5.565419793E-1,1.657087445E0,1.014054966E1
3.457160160E0,-5.613330007E-1,1.700206518E0,1.006149864E1
3.462211046E0,-5.589374900E-1,1.721765995E0,9.984842300E0
3.467261983E0,-5.541465282E-1,1.772071481E0,9.905791283E0
3.472312868E0,-5.565419793E-1,1.791235447E0,9.812366486E0
3.477363806E0,-5.182139874E-1,1.855913997E0,9.649472237E0
3.482447243E0,-4.415580034E-1,1.891846538E0,9.594375610E0
3.487498129E0,-4.319759905E-1,1.896637559E0,9.431482315E0
3.492549066E0,-4.463489950E-1,1.903823972E0,9.297333717E0
3.497600004E0,-4.247894883E-1,1.922988057E0,9.263796806E0
3.502650941E0,-4.319759905E-1,1.930174470E0,9.160790443E0
3.507701827E0,-4.319759905E-1,1.925383449E0,9.060179710E0
3.512766671E0,-4.655129910E-1,1.937361002E0,8.942799568E0
3.517817608E0,-5.038409829E-1,1.973293543E0,8.856561661E0
3.522868546E0,-5.110275149E-1,1.999644041E0,8.851771355E0
3.527919431E0,-5.301914811E-1,2.037971973E0,8.906867027E0
3.532970368E0,-5.325869918E-1,2.083486557E0,8.947590828E0
3.538021306E0,-5.086320043E-1,2.033180952E0,8.983523369E0
3.543048181E0,-5.086320043E-1,2.014017105E0,8.928426743E0
3.548099066E0,-5.014454722E-1,2.025994539E0,8.945195198E0
3.553150004E0,-5.373780131E-1,1.990061998E0,8.978732109E0
3.558200889E0,-5.613330007E-1,1.973293543E0,9.086529732E0
3.563251827E0,-5.876834989E-1,1.966107011E0,9.146417618E0
3.568302764E0,-5.924745202E-1,1.954129457E0,9.151208878E0
3.573350733E0,-5.661240220E-1,1.966107011E0,9.177558899E0
3.578401618E0,-5.757060051E-1,1.963711500E0,9.187141418E0
3.583452504E0,-5.709149837E-1,1.978084445E0,9.132044792E0
3.588503441E0,-5.661240220E-1,1.961315989E0,9.103298187E0
3.593554379E0,-5.421689749E-1,1.982875466E0,9.057784081E0
3.598605316E0,-5.781015158E-1,1.973293543E0,9.088925362E0
3.603656931E0,-6.475710273E-1,1.956524968E0,9.203909874E0
3.608707868E0,-6.595485210E-1,1.932569981E0,9.306916237E0
3.613758806E0,-6.787124872E-1,1.927778959E0,9.409922600E0
3.618809743E0,-7.074584961E-1,1.894242048E0,9.556048393E0
3.623860629E0,-7.266225219E-1,1.882264495E0,9.637495041E0
3.628911566E0,-7.529730201E-1,1.846331954E0,9.726128578E0
3.633980837E0,-7.529730201E-1,1.865496039E0,9.829134941E0
3.639031775E0,-7.697414756E-1,1.853518486E0,9.824343681E0
3.644082660E0,-7.625550032E-1,1.839145541E0,9.797993660E0
3.649133598E0,-6.906899810E-1,1.834354520E0,9.738105774E0
3.654184535E0,-6.427800059E-1,1.887055516E0,9.594375610E0
3.659235421E0,-5.804970264E-1,1.925383449E0,9.407526970E0
3.664256618E0,-5.469599962E-1,1.937361002E0,9.316497803E0
3.669307556E0,-5.397735238E-1,1.946943045E0,9.196722984E0
3.674358441E0,-5.493555069E-1,1.970898032E0,9.165581703E0
3.679409327E0,-5.876834989E-1,1.956524968E0,9.141626358E0
3.684460264E0,-6.116384864E-1,1.946943045E0,9.103298187E0
3.689511202E0,-6.403844953E-1,1.942152023E0,9.062575340E0
3.694595160E0,-6.667349935E-1,1.937361002E0,9.158394814E0
3.699646046E0,-6.978765130E-1,1.887055516E0,9.256610870E0
3.704696983E0,-6.547574997E-1,1.879868984E0,9.335661888E0
3.709747921E0,-6.954810023E-1,1.860705018E0,9.443459511E0
3.714798806E0,-7.386000156E-1,1.834354520E0,9.548861504E0
3.719849743E0,-7.290179729E-1,1.853518486E0,9.632703781E0
3.724875108E0,-7.553684711E-1,1.853518486E0,9.721337318E0
3.729926046E0,-7.601594925E-1,1.800817490E0,9.845903397E0
3.734976931E0,-7.913010120E-1,1.776862502E0,9.872254372E0
3.740027868E0,-7.936965227E-1,1.757698536E0,9.860276222E0
3.745078806E0,-7.577639818E-1,1.748116493E0,9.867463112E0
3.750129743E0,-7.122495174E-1,1.752907515E0,9.821948051E0
3.755192973E0,-6.260114908E-1,1.755303025E0,9.728524208E0
3.760243910E0,-5.900790095E-1,1.805608511E0,9.671031952E0
3.765294848E0,-5.493555069E-1,1.863100529E0,9.591980934E0
3.770345785E0,-4.415580034E-1,1.899032950E0,9.498556137E0
3.775396671E0,-3.169920146E-1,1.963711500E0,9.455436707E0
3.780447608E0,-2.642909884E-1,2.004435062E0,9.362012863E0
3.785495473E0,-1.708665043E-1,2.028389931E0,9.318893433E0
3.790546410E0,-1.780530065E-1,2.090672970E0,9.314102173E0
3.795597296E0,-1.876350045E-1,2.124209881E0,9.314102173E0
3.800648233E0,-2.666864991E-1,2.114628077E0,9.326080322E0
3.805699171E0,-2.978279889E-1,2.136187553E0,9.364407539E0
3.810750056E0,-3.529244959E-1,2.093068600E0,9.472205162E0
3.815804379E0,-4.104165137E-1,2.078695536E0,9.620726585E0
3.820855316E0,-4.223940074E-1,2.052345037E0,9.738105774E0
3.825906202E0,-4.367670119E-1,2.054740429E0,9.860276222E0
3.830957087E0,-4.152075052E-1,2.054740429E0,9.948909760E0
3.836008077E0,-3.768795133E-1,1.999644041E0,1.001119328E1
3.841058962E0,-3.577154875E-1,2.006830454E0,1.002317047E1
3.846112191E0,-3.649019897E-1,2.042762995E0,1.006628990E1
3.851163129E0,-3.696930110E-1,2.088277578E0,1.005670738E1
3.856214014E0,-3.672975004E-1,2.083486557E0,9.996820450E0
3.861264952E0,-3.361560106E-1,2.129000902E0,9.910581589E0
3.866315889E0,-2.618955076E-1,2.162538052E0,9.774038315E0
3.871366775E0,-1.780530065E-1,2.191283941E0,9.635099411E0
3.876448337E0,-1.325384974E-1,2.220030069E0,9.570421219E0
3.881499223E0,-9.660600126E-2,2.232007504E0,9.472205162E0
3.886550160E0,-9.900149703E-2,2.203261614E0,9.438668251E0
3.891601098E0,-8.462850004E-2,2.188888550E0,9.371594429E0
3.896651983E0,-1.157699972E-1,2.188888550E0,9.414713860E0
3.901702921E0,-1.421204954E-1,2.217634439E0,9.460227966E0
3.906752191E0,-1.540980041E-1,2.196074963E0,9.556048393E0
3.911803077E0,-1.684709936E-1,2.184097528E0,9.666240692E0
3.916854014E0,-1.996124983E-1,2.169724464E0,9.766852379E0
3.921904952E0,-2.523134947E-1,2.140978575E0,9.862671852E0
3.926955837E0,-3.457379937E-1,2.143373966E0,9.999215126E0
3.932006827E0,-3.433425128E-1,2.124209881E0,1.009263992E1
3.937071566E0,-3.505289853E-1,2.081090927E0,1.016450500E1
3.942122452E0,-3.193874955E-1,2.090672970E0,1.018846035E1
3.947173389E0,-2.618955076E-1,2.095463991E0,1.021001911E1
3.952224327E0,-2.259629965E-1,2.078695536E0,1.018127346E1
3.957275264E0,-1.900305003E-1,2.131396532E0,1.013096809E1
3.962326202E0,-1.397249997E-1,2.143373966E0,1.007826710E1
3.967342504E0,-1.588889956E-1,2.119419098E0,9.970469475E0
3.972393441E0,-1.564934999E-1,2.112232447E0,9.843507767E0
3.977444327E0,-1.421204954E-1,2.136187553E0,9.745292664E0
3.982495264E0,-1.636800021E-1,2.107441425E0,9.697382927E0
3.987546202E0,-2.235675007E-1,2.076299906E0,9.678218842E0
3.992597087E0,-2.259629965E-1,2.069113493E0,9.685404778E0
3.997645473E0,-2.762685120E-1,2.069113493E0,9.685404778E0
4.002696410E0,-3.145965040E-1,2.066718102E0,9.613539696E0
4.007747296E0,-3.457379937E-1,2.047554016E0,9.608749390E0
4.012798233E0,-3.625065088E-1,2.014017105E0,9.608749390E0
4.017849171E0,-3.601109982E-1,1.973293543E0,9.591980934E0
4.022900056E0,-3.577154875E-1,1.951733947E0,9.632703781E0
4.027941254E0,-3.409470022E-1,1.958920479E0,9.613539696E0
4.032992243E0,-3.481335044E-1,1.944547534E0,9.575211525E0
4.038043129E0,-3.433425128E-1,1.946943045E0,9.572816849E0
4.043094014E0,-3.553200066E-1,1.920592546E0,9.570421219E0
4.048144952E0,-3.768795133E-1,1.942152023E0,9.639890671E0
4.053195889E0,-4.152075052E-1,1.949338555E0,9.742897034E0
4.058257087E0,-3.840659857E-1,1.949338555E0,9.764456749E0
4.063308129E0,-3.984389901E-1,1.975689054E0,9.793202400E0
4.068359118E0,-4.295805097E-1,1.966107011E0,9.824343681E0
4.073410160E0,-4.247894883E-1,1.939756513E0,9.857880592E0
4.078461202E0,-4.535354972E-1,1.932569981E0,9.872254372E0
4.083512243E0,-5.062364936E-1,1.956524968E0,9.819553375E0
4.088564535E0,-5.637285113E-1,1.958920479E0,9.730919838E0
4.093615577E0,-5.733104944E-1,1.946943045E0,9.596771240E0
4.098666566E0,-5.733104944E-1,1.901428461E0,9.476996422E0
4.103717608E0,-5.852879882E-1,1.887055516E0,9.388362885E0
4.108768650E0,-6.068475246E-1,1.877473474E0,9.338057518E0
4.113819691E0,-6.308025122E-1,1.901428461E0,9.376385689E0
4.118906775E0,-6.188250184E-1,1.949338555E0,9.364407539E0
4.123957816E0,-5.613330007E-1,1.946943045E0,9.453041077E0
4.129008858E0,-5.397735238E-1,1.961315989E0,9.448250771E0
4.134059900E0,-4.559310079E-1,1.994853020E0,9.450646400E0
4.139110941E0,-3.864614964E-1,2.014017105E0,9.479392052E0
4.144161983E0,-3.744840026E-1,2.057136059E0,9.522510529E0
4.149206358E0,-4.128119946E-1,2.059531450E0,9.548861504E0
4.154257348E0,-4.774905145E-1,2.076299906E0,9.498556137E0
4.159308389E0,-5.086320043E-1,2.073904514E0,9.577607155E0
4.164359431E0,-5.397735238E-1,2.049949408E0,9.615935326E0
4.169410473E0,-5.589374900E-1,2.016412497E0,9.625517845E0
4.174461514E0,-5.637285113E-1,2.006830454E0,9.649472237E0
4.179475889E0,-5.852879882E-1,2.002039433E0,9.702173233E0
4.184526931E0,-6.212205291E-1,1.968502522E0,9.675823212E0
4.189577921E0,-6.331980228E-1,1.985270977E0,9.675823212E0
4.194628962E0,-6.355934739E-1,1.999644041E0,9.661450386E0
4.199680004E0,-6.379889846E-1,1.994853020E0,9.642286301E0
4.204731046E0,-6.739215255E-1,2.006830454E0,9.671031952E0
4.209799379E0,-6.451755166E-1,2.045158386E0,9.644681931E0
4.214850421E0,-5.876834989E-1,2.042762995E0,9.639890671E0
4.219901410E0,-5.349825025E-1,2.061927080E0,9.591980934E0
4.224952504E0,-4.655129910E-1,2.088277578E0,9.570421219E0
4.230003546E0,-4.152075052E-1,2.138582945E0,9.527301788E0
4.235054587E0,-3.864614964E-1,2.164933443E0,9.469809532E0
4.240130629E0,-3.505289853E-1,2.181701899E0,9.402735710E0
4.245181671E0,-3.625065088E-1,2.157747030E0,9.342848778E0
4.250232712E0,-3.457379937E-1,2.162538052E0,9.335661888E0
4.255283754E0,-3.169920146E-1,2.145769596E0,9.326080322E0
4.260334796E0,-3.696930110E-1,2.131396532E0,9.311706543E0
4.265385837E0,-3.984389901E-1,2.102650404E0,9.294938087E0
4.270444796E0,-4.439535141E-1,2.085881948E0,9.357221603E0
4.275495889E0,-4.846769869E-1,2.107441425E0,9.412318230E0
4.280546879E0,-5.134230256E-1,2.102650404E0,9.457832336E0
4.285597921E0,-4.990499914E-1,2.105046034E0,9.469809532E0
4.290648962E0,-4.655129910E-1,2.138582945E0,9.443459511E0
4.295700004E0,-4.152075052E-1,2.124209881E0,9.419504166E0
4.300717452E0,-4.487445056E-1,2.107441425E0,9.436272621E0
4.305768493E0,-4.607219994E-1,2.097859383E0,9.431482315E0
4.310819535E0,-4.846769869E-1,2.071508884E0,9.445855141E0
4.315870525E0,-4.918634892E-1,2.100255013E0,9.431482315E0
4.320921566E0,-4.918634892E-1,2.105046034E0,9.388362885E0
4.325972608E0,-4.631175101E-1,2.097859383E0,9.388362885E0
4.331052608E0,-4.631175101E-1,2.085881948E0,9.381176949E0
4.336103598E0,-4.918634892E-1,2.102650404E0,9.383571625E0
4.341154639E0,-4.966545105E-1,2.073904514E0,9.407526970E0
4.346205681E0,-4.798859954E-1,2.066718102E0,9.390758514E0
4.351256723E0,-4.559310079E-1,2.047554016E0,9.340453148E0
4.356307764E0,-4.247894883E-1,2.045158386E0,9.359617233E0
4.361333962E0,-4.223940074E-1,2.071508884E0,9.378781319E0
4.366385004E0,-4.199984968E-1,2.107441425E0,9.354825974E0
4.371436046E0,-3.984389901E-1,2.162538052E0,9.369198799E0
4.376487035E0,-3.792749941E-1,2.200865984E0,9.443459511E0
4.381538077E0,-3.864614964E-1,2.227216482E0,9.469809532E0
4.386589118E0,-3.912524879E-1,2.243984938E0,9.500951767E0
4.391639900E0,-3.864614964E-1,2.224821091E0,9.570421219E0
4.396690941E0,-3.744840026E-1,2.232007504E0,9.596771240E0
4.401741931E0,-3.577154875E-1,2.227216482E0,9.570421219E0
4.406792973E0,-3.193874955E-1,2.215239048E0,9.584794044E0
4.411844014E0,-3.625065088E-1,2.224821091E0,9.599166870E0
4.416895056E0,-3.888570070E-1,2.172120094E0,9.553652763E0
4.421987712E0,-3.816705048E-1,2.176911116E0,9.556048393E0
4.427038754E0,-4.415580034E-1,2.184097528E0,9.536884308E0
4.432089796E0,-4.415580034E-1,2.176911116E0,9.460227966E0
4.437140837E0,-4.607219994E-1,2.169724464E0,9.450646400E0
4.442191879E0,-4.559310079E-1,2.160142422E0,9.438668251E0
4.447242921E0,-4.439535141E-1,2.145769596E0,9.421899796E0
4.452281306E0,-4.463489950E-1,2.150560617E0,9.493764877E0
4.457332348E0,-4.199984968E-1,2.167329073E0,9.524906158E0
4.462383389E0,-4.152075052E-1,2.162538052E0,9.596771240E0
4.467434431E0,-3.912524879E-1,2.157747030E0,9.608749390E0
4.472485473E0,-4.104165137E-1,2.131396532E0,9.625517845E0
4.477536514E0,-4.631175101E-1,2.129000902E0,9.726128578E0
4.482591150E0,-4.655129910E-1,2.109837055E0,9.838717461E0
4.487642191E0,-4.487445056E-1,2.097859383E0,9.901000023E0
4.492693233E0,-4.271849990E-1,2.112232447E0,9.929745674E0
4.497744275E0,-4.152075052E-1,2.136187553E0,9.944119453E0
4.502795316E0,-4.104165137E-1,2.121814489E0,9.891418457E0
4.507846358E0,-4.535354972E-1,2.054740429E0,9.817157745E0
4.512866931E0,-4.535354972E-1,2.076299906E0,9.795598030E0
4.517917973E0,-4.726994932E-1,2.047554016E0,9.778829575E0
4.522969014E0,-4.870724976E-1,2.054740429E0,9.728524208E0
4.528020056E0,-5.062364936E-1,2.073904514E0,9.757269859E0
4.533071098E0,-5.038409829E-1,2.097859383E0,9.809970856E0
4.538122139E0,-5.565419793E-1,2.097859383E0,9.831530571E0
4.543168910E0,-5.325869918E-1,2.097859383E0,9.853090286E0
4.548219952E0,-5.230050087E-1,2.093068600E0,9.843507767E0
4.553270941E0,-5.134230256E-1,2.117023468E0,9.886627197E0
4.558322035E0,-5.182139874E-1,2.085881948E0,9.908186913E0
4.563373077E0,-5.110275149E-1,2.119419098E0,9.879440308E0
4.568424066E0,-5.397735238E-1,2.136187553E0,9.948909760E0
4.573532816E0,-4.822815061E-1,2.148164988E0,9.956096649E0
4.578583858E0,-5.038409829E-1,2.124209881E0,9.908186913E0
4.583634900E0,-4.966545105E-1,2.150560617E0,9.877044678E0
4.588685941E0,-4.535354972E-1,2.143373966E0,9.776433945E0
4.593736983E0,-4.774905145E-1,2.150560617E0,9.644681931E0
4.598788025E0,-5.062364936E-1,2.145769596E0,9.491369247E0
4.603809535E0,-4.750950038E-1,2.179306507E0,9.306916237E0
4.608860577E0,-4.750950038E-1,2.179306507E0,9.108089447E0
4.613911566E0,-5.206094980E-1,2.184097528E0,8.952382088E0
4.618962608E0,-5.733104944E-1,2.167329073E0,8.868539810E0
4.624013650E0,-6.427800059E-1,2.124209881E0,8.930822372E0
4.629064691E0,-6.499664783E-1,2.102650404E0,8.957173347E0
4.634117452E0,-5.900790095E-1,2.097859383E0,8.997896194E0
4.639168546E0,-5.685194731E-1,2.064322472E0,9.117671967E0
4.644219535E0,-5.924745202E-1,2.059531450E0,9.215887070E0
4.649270577E0,-5.948699713E-1,2.131396532E0,9.350034714E0
4.654321618E0,-5.301914811E-1,2.160142422E0,9.467414856E0
4.659372660E0,-4.918634892E-1,2.236798525E0,9.505742073E0
4.664418233E0,-4.391624928E-1,2.270335436E0,9.582398415E0
4.669469275E0,-3.481335044E-1,2.275126457E0,9.553652763E0
4.674520264E0,-2.834550142E-1,2.318245411E0,9.484183311E0
4.679571306E0,-2.187764943E-1,2.354177952E0,9.393154144E0
4.684622348E0,-2.139855027E-1,2.361364603E0,9.342848778E0
4.689673389E0,-2.379405051E-1,2.346991539E0,9.323684692E0
4.694723181E0,-2.475225031E-1,2.361364603E0,9.299729347E0
4.699774223E0,-2.834550142E-1,2.335014105E0,9.251819611E0
4.704825212E0,-3.026190102E-1,2.342200518E0,9.203909874E0
4.709876254E0,-3.122009933E-1,2.327827454E0,9.239842415E0
4.714927348E0,-3.169920146E-1,2.318245411E0,9.254215240E0
4.719978337E0,-3.217830062E-1,2.294290543E0,9.294938087E0
4.725030629E0,-3.074100018E-1,2.260753393E0,9.326080322E0
4.730081671E0,-3.744840026E-1,2.275126457E0,9.395549774E0
4.735132660E0,-4.080210030E-1,2.258358002E0,9.436272621E0
4.740183702E0,-4.655129910E-1,2.222425461E0,9.476996422E0
4.745234743E0,-5.421689749E-1,2.193679571E0,9.541674614E0
4.750285785E0,-5.493555069E-1,2.193679571E0,9.611144066E0
4.755366098E0,-5.421689749E-1,2.150560617E0,9.615935326E0
4.760417139E0,-5.445644855E-1,2.097859383E0,9.666240692E0
4.765468181E0,-5.781015158E-1,2.040367603E0,9.750083923E0
4.770519223E0,-5.948699713E-1,2.064322472E0,9.771642685E0
4.775570264E0,-6.403844953E-1,2.057136059E0,9.800389290E0
4.780621306E0,-7.026674747E-1,2.054740429E0,9.728524208E0
4.785643806E0,-6.667349935E-1,2.088277578E0,9.738105774E0
4.790694796E0,-5.996609926E-1,2.069113493E0,9.706964493E0
4.795745837E0,-5.182139874E-1,2.119419098E0,9.680614471E0
4.800796879E0,-4.679085016E-1,2.114628077E0,9.671031952E0
4.805847921E0,-4.295805097E-1,2.136187553E0,9.668636322E0
4.810898962E0,-3.960435092E-1,2.148164988E0,9.663845062E0
4.815959900E0,-3.936479986E-1,2.196074963E0,9.690196037E0
4.821010941E0,-3.625065088E-1,2.217634439E0,9.627913475E0
4.826061983E0,-3.313649893E-1,2.215239048E0,9.575211525E0
4.831113025E0,-3.098055124E-1,2.210448027E0,9.615935326E0
4.836164066E0,-3.002234995E-1,2.227216482E0,9.644681931E0
4.841215108E0,-3.529244959E-1,2.196074963E0,9.692591667E0
4.846261723E0,-4.247894883E-1,2.176911116E0,9.714151382E0
4.851312764E0,-4.894680083E-1,2.143373966E0,9.790806770E0
4.856363754E0,-5.445644855E-1,2.093068600E0,9.824343681E0
4.861414848E0,-6.068475246E-1,2.093068600E0,9.867463112E0
4.866465889E0,-5.565419793E-1,2.078695536E0,9.922559738E0
4.871516931E0,-5.589374900E-1,2.040367603E0,9.917768478E0
4.876567660E0,-5.134230256E-1,2.066718102E0,9.929745674E0
4.881618702E0,-5.062364936E-1,2.069113493E0,9.941723824E0
4.886669743E0,-4.607219994E-1,2.112232447E0,9.948909760E0
4.891720785E0,-4.391624928E-1,2.121814489E0,9.980051041E0
4.896771827E0,-4.535354972E-1,2.121814489E0,9.932141304E0
4.901822868E0,-4.032300115E-1,2.181701899E0,9.936932564E0
4.906866098E0,-3.912524879E-1,2.186492920E0,9.874649048E0
4.911917191E0,-3.409470022E-1,2.174515486E0,9.817157745E0
4.916968181E0,-3.361560106E-1,2.188888550E0,9.774038315E0
4.922019223E0,-3.098055124E-1,2.208052397E0,9.673427582E0
4.927070264E0,-2.762685120E-1,2.260753393E0,9.623122215E0
4.932121306E0,-2.594999969E-1,2.275126457E0,9.558443069E0
4.937185733E0,-2.738730013E-1,2.296685934E0,9.515324593E0
4.942236775E0,-2.666864991E-1,2.270335436E0,9.453041077E0
4.947287816E0,-2.547090054E-1,2.267940044E0,9.436272621E0
4.952338858E0,-3.241784871E-1,2.272731066E0,9.465019226E0
4.957389900E0,-3.720884919E-1,2.229612112E0,9.539279938E0
4.962440941E0,-4.176029861E-1,2.232007504E0,9.599166870E0
4.967533285E0,-3.816705048E-1,2.239193916E0,9.635099411E0
4.972584327E0,-3.601109982E-1,2.270335436E0,9.632703781E0
4.977635368E0,-3.457379937E-1,2.277522087E0,9.678218842E0
4.982686410E0,-3.529244959E-1,2.260753393E0,9.656659126E0
4.987737452E0,-3.002234995E-1,2.251171589E0,9.623122215E0
4.992788493E0,-3.193874955E-1,2.224821091E0,9.599166870E0
4.997798233E0,-3.241784871E-1,2.229612112E0,9.575211525E0
5.002849275E0,-3.313649893E-1,2.193679571E0,9.529697418E0
5.007900316E0,-3.026190102E-1,2.164933443E0,9.429086685E0
5.012951358E0,-2.882460058E-1,2.217634439E0,9.352430344E0
5.018002400E0,-3.241784871E-1,2.241589546E0,9.259005547E0
5.023053441E0,-3.672975004E-1,2.251171589E0,9.251819611E0
5.028103754E0,-3.385514915E-1,2.253566980E0,9.199118614E0
5.033154796E0,-3.217830062E-1,2.291894913E0,9.187141418E0
5.038205785E0,-2.882460058E-1,2.291894913E0,9.165581703E0
5.043256879E0,-3.050144911E-1,2.275126457E0,9.187141418E0
5.048307921E0,-3.145965040E-1,2.265544415E0,9.259005547E0
5.053358962E0,-3.169920146E-1,2.287103891E0,9.287752151E0
5.058408025E0,-3.217830062E-1,2.294290543E0,9.357221603E0
5.063459223E0,-3.122009933E-1,2.284708500E0,9.462623596E0
5.068510473E0,-3.122009933E-1,2.287103891E0,9.510533333E0
5.073561723E0,-3.289695084E-1,2.272731066E0,9.577607155E0
5.078612921E0,-3.553200066E-1,2.277522087E0,9.697382927E0
5.083664118E0,-3.936479986E-1,2.275126457E0,9.771642685E0
5.088722139E0,-4.104165137E-1,2.270335436E0,9.819553375E0
5.093773337E0,-3.984389901E-1,2.229612112E0,9.800389290E0
5.098824587E0,-4.056254923E-1,2.210448027E0,9.814762115E0
5.103875837E0,-3.936479986E-1,2.217634439E0,9.829134941E0
5.108926983E0,-3.625065088E-1,2.217634439E0,9.740501404E0
5.113978233E0,-3.553200066E-1,2.210448027E0,9.668636322E0
5.119036150E0,-3.457379937E-1,2.208052397E0,9.527301788E0
5.124087348E0,-3.696930110E-1,2.212843418E0,9.493764877E0
5.129138598E0,-3.672975004E-1,2.236798525E0,9.465019226E0
5.134189796E0,-3.577154875E-1,2.258358002E0,9.393154144E0
5.139240993E0,-3.385514915E-1,2.246380568E0,9.407526970E0
5.144292243E0,-3.241784871E-1,2.291894913E0,9.433877945E0
5.149334379E0,-2.858504951E-1,2.301476955E0,9.457832336E0
5.154385577E0,-2.858504951E-1,2.313454390E0,9.522510529E0
5.159436827E0,-2.547090054E-1,2.327827454E0,9.587189674E0
5.164488025E0,-2.427314967E-1,2.315850019E0,9.627913475E0
5.169539223E0,-2.571044862E-1,2.344595909E0,9.683009148E0
5.174590473E0,-2.906414866E-1,2.349386930E0,9.740501404E0
5.179641931E0,-3.074100018E-1,2.351782560E0,9.766852379E0
5.184693129E0,-2.834550142E-1,2.318245411E0,9.740501404E0
5.189744379E0,-2.882460058E-1,2.327827454E0,9.680614471E0
5.194795577E0,-2.786639929E-1,2.308663607E0,9.663845062E0
5.199846775E0,-2.906414866E-1,2.313454390E0,9.647076607E0
5.204898025E0,-2.978279889E-1,2.318245411E0,9.603958130E0
5.209957296E0,-3.241784871E-1,2.299081564E0,9.618330956E0
5.215008546E0,-3.744840026E-1,2.306267977E0,9.649472237E0
5.220059743E0,-4.032300115E-1,2.270335436E0,9.673427582E0
5.225110941E0,-4.343715012E-1,2.246380568E0,9.666240692E0
5.230162191E0,-4.152075052E-1,2.220030069E0,9.618330956E0
5.235213389E0,-4.271849990E-1,2.205657005E0,9.587189674E0
5.240270629E0,-4.894680083E-1,2.222425461E0,9.577607155E0
5.245321879E0,-4.894680083E-1,2.174515486E0,9.568025589E0
5.250373077E0,-5.086320043E-1,2.157747030E0,9.601562500E0
5.255424327E0,-5.349825025E-1,2.208052397E0,9.556048393E0
5.260475525E0,-5.469599962E-1,2.186492920E0,9.522510529E0
5.265526775E0,-5.397735238E-1,2.138582945E0,9.587189674E0
5.270562191E0,-5.541465282E-1,2.143373966E0,9.675823212E0
5.275613441E0,-5.517510176E-1,2.152956009E0,9.659054756E0
5.280664639E0,-5.110275149E-1,2.215239048E0,9.637495041E0
5.285715889E0,-4.535354972E-1,2.224821091E0,9.582398415E0
5.290767087E0,-4.104165137E-1,2.248775959E0,9.508137703E0
5.295818285E0,-4.128119946E-1,2.272731066E0,9.421899796E0
5.300875837E0,-4.343715012E-1,2.224821091E0,9.309311867E0
5.305927087E0,-4.679085016E-1,2.220030069E0,9.273379326E0
5.310978285E0,-5.086320043E-1,2.251171589E0,9.302124977E0
5.316029535E0,-6.044520140E-1,2.224821091E0,9.285356522E0
5.321080733E0,-6.164295077E-1,2.188888550E0,9.287752151E0
5.326131983E0,-6.236159801E-1,2.169724464E0,9.309311867E0
5.331184639E0,-6.978765130E-1,2.133791924E0,9.314102173E0
5.336235837E0,-7.218315005E-1,2.129000902E0,9.345244408E0
5.341287087E0,-7.553684711E-1,2.172120094E0,9.405131340E0
5.346338285E0,-7.601594925E-1,2.167329073E0,9.445855141E0
5.351389483E0,-7.338089943E-1,2.155351400E0,9.486578941E0
5.356440785E0,-7.074584961E-1,2.164933443E0,9.438668251E0
5.361483858E0,-6.954810023E-1,2.157747030E0,9.381176949E0
5.366535108E0,-6.930854917E-1,2.155351400E0,9.364407539E0
5.371586306E0,-6.451755166E-1,2.193679571E0,9.388362885E0
5.376637556E0,-6.164295077E-1,2.220030069E0,9.397945404E0
5.381688754E0,-5.852879882E-1,2.205657005E0,9.421899796E0
5.386740004E0,-5.661240220E-1,2.239193916E0,9.448250771E0
5.391770316E0,-4.894680083E-1,2.279917479E0,9.476996422E0
5.396821514E0,-4.415580034E-1,2.287103891E0,9.529697418E0
5.401872764E0,-4.367670119E-1,2.308663607E0,9.587189674E0
5.406923962E0,-3.816705048E-1,2.330223083E0,9.582398415E0
5.411975212E0,-3.720884919E-1,2.342200518E0,9.582398415E0
5.417026410E0,-3.936479986E-1,2.363759995E0,9.611144066E0
5.422095629E0,-4.104165137E-1,2.358968973E0,9.661450386E0
5.427146879E0,-4.056254923E-1,2.370946407E0,9.659054756E0
5.432198077E0,-4.463489950E-1,2.368551016E0,9.683009148E0
5.437249327E0,-4.032300115E-1,2.346991539E0,9.649472237E0
5.442300525E0,-4.199984968E-1,2.344595909E0,9.596771240E0
5.447351775E0,-4.559310079E-1,2.330223083E0,9.601562500E0
5.452403598E0,-4.798859954E-1,2.363759995E0,9.556048393E0
5.457454796E0,-4.271849990E-1,2.366155386E0,9.532093048E0
5.462506046E0,-4.391624928E-1,2.366155386E0,9.445855141E0
5.467557243E0,-4.798859954E-1,2.370946407E0,9.397945404E0
5.472608493E0,-4.942589998E-1,2.358968973E0,9.376385689E0
5.477659743E0,-5.301914811E-1,2.313454390E0,9.366803169E0
5.482720525E0,-5.493555069E-1,2.346991539E0,9.378781319E0
5.487771723E0,-5.685194731E-1,2.342200518E0,9.424295425E0
5.492822973E0,-5.709149837E-1,2.323036432E0,9.465019226E0
5.497874171E0,-5.733104944E-1,2.318245411E0,9.503347397E0
5.502925368E0,-5.254005194E-1,2.313454390E0,9.512928963E0
5.507976618E0,-4.942589998E-1,2.318245411E0,9.563234329E0
5.513016827E0,-4.870724976E-1,2.294290543E0,9.596771240E0
5.518068025E0,-4.726994932E-1,2.323036432E0,9.666240692E0
5.523119275E0,-4.918634892E-1,2.332618475E0,9.692591667E0
5.528170473E0,-4.271849990E-1,2.323036432E0,9.752478600E0
5.533221671E0,-4.535354972E-1,2.294290543E0,9.752478600E0
5.538272921E0,-5.086320043E-1,2.296685934E0,9.750083923E0
5.543328962E0,-5.349825025E-1,2.318245411E0,9.793202400E0
5.548380160E0,-5.182139874E-1,2.291894913E0,9.738105774E0
5.553431410E0,-4.918634892E-1,2.275126457E0,9.582398415E0
5.558482608E0,-5.182139874E-1,2.267940044E0,9.484183311E0
5.563533806E0,-4.966545105E-1,2.239193916E0,9.414713860E0
5.568585056E0,-5.206094980E-1,2.258358002E0,9.357221603E0
5.573638285E0,-5.733104944E-1,2.308663607E0,9.292543411E0
5.578689483E0,-5.948699713E-1,2.291894913E0,9.261401176E0
5.583740733E0,-5.972654819E-1,2.289499521E0,9.244632721E0
5.588791931E0,-5.301914811E-1,2.263149023E0,9.249423981E0
5.593843129E0,-4.966545105E-1,2.251171589E0,9.254215240E0
5.598894379E0,-4.391624928E-1,2.289499521E0,9.287752151E0
5.603933910E0,-3.744840026E-1,2.325432062E0,9.378781319E0
5.608985108E0,-3.457379937E-1,2.344595909E0,9.441063881E0
5.614036358E0,-3.529244959E-1,2.325432062E0,9.522510529E0
5.619087556E0,-3.888570070E-1,2.344595909E0,9.649472237E0
5.624138806E0,-3.984389901E-1,2.308663607E0,9.793202400E0
5.629190004E0,-4.367670119E-1,2.303872585E0,9.862671852E0
5.634240212E0,-4.822815061E-1,2.287103891E0,9.910581589E0
5.639291410E0,-4.966545105E-1,2.267940044E0,9.980051041E0
5.644342660E0,-5.637285113E-1,2.229612112E0,9.936932564E0
5.649393858E0,-5.565419793E-1,2.212843418E0,9.893813133E0
5.654445108E0,-5.685194731E-1,2.191283941E0,9.790806770E0
5.659496306E0,-5.733104944E-1,2.188888550E0,9.687800407E0
5.664558025E0,-5.804970264E-1,2.186492920E0,9.572816849E0
5.669609223E0,-5.733104944E-1,2.198470592E0,9.479392052E0
5.674660473E0,-5.158184767E-1,2.208052397E0,9.378781319E0
5.679711671E0,-4.703040123E-1,2.258358002E0,9.335661888E0
5.684762868E0,-4.559310079E-1,2.284708500E0,9.316497803E0
5.689814118E0,-4.295805097E-1,2.311058998E0,9.342848778E0
5.694874066E0,-4.176029861E-1,2.315850019E0,9.345244408E0
5.699925264E0,-4.080210030E-1,2.320641041E0,9.330870628E0
5.704976514E0,-4.104165137E-1,2.346991539E0,9.424295425E0
5.710027712E0,-3.912524879E-1,2.349386930E0,9.445855141E0
5.715078910E0,-4.271849990E-1,2.378133059E0,9.484183311E0
5.720130160E0,-3.912524879E-1,2.373342037E0,9.508137703E0
5.725168598E0,-3.960435092E-1,2.361364603E0,9.532093048E0
5.730219796E0,-3.936479986E-1,2.356573582E0,9.488973618E0
5.735271046E0,-3.984389901E-1,2.337409496E0,9.484183311E0
5.740322243E0,-4.295805097E-1,2.318245411E0,9.493764877E0
5.745373441E0,-5.110275149E-1,2.287103891E0,9.544070244E0
5.750424691E0,-5.469599962E-1,2.287103891E0,9.591980934E0
5.755480056E0,-5.182139874E-1,2.289499521E0,9.565629959E0
5.760531254E0,-5.134230256E-1,2.265544415E0,9.484183311E0
5.765582504E0,-5.230050087E-1,2.251171589E0,9.455436707E0
5.770633702E0,-5.230050087E-1,2.270335436E0,9.400340080E0
5.775684900E0,-5.421689749E-1,2.258358002E0,9.350034714E0
5.780736150E0,-5.517510176E-1,2.287103891E0,9.266192436E0
5.785782139E0,-5.709149837E-1,2.267940044E0,9.206304550E0
5.790833337E0,-5.804970264E-1,2.232007504E0,9.182350159E0
5.795884587E0,-5.828924775E-1,2.222425461E0,9.165581703E0
5.800935785E0,-5.637285113E-1,2.205657005E0,9.153603554E0
5.805987035E0,-5.565419793E-1,2.188888550E0,9.177558899E0
5.811038233E0,-5.469599962E-1,2.188888550E0,9.227864265E0
5.816080733E0,-5.206094980E-1,2.169724464E0,9.311706543E0
5.821131931E0,-4.798859954E-1,2.217634439E0,9.429086685E0
5.826183181E0,-5.014454722E-1,2.210448027E0,9.534488678E0
5.831234379E0,-5.086320043E-1,2.191283941E0,9.649472237E0
5.836285629E0,-5.277959704E-1,2.179306507E0,9.694987297E0
5.841336827E0,-5.613330007E-1,2.162538052E0,9.750083923E0
5.846399379E0,-5.996609926E-1,2.138582945E0,9.817157745E0
5.851450577E0,-6.691305041E-1,2.102650404E0,9.829134941E0
5.856501827E0,-6.763169765E-1,2.081090927E0,9.848299026E0
5.861553025E0,-6.763169765E-1,2.057136059E0,9.805179596E0
5.866604223E0,-6.715260148E-1,2.023598909E0,9.680614471E0
5.871655473E0,-6.475710273E-1,2.049949408E0,9.465019226E0
5.876699118E0,-6.643394828E-1,2.097859383E0,9.347639084E0
5.881750316E0,-6.451755166E-1,2.167329073E0,9.237446785E0
5.886801566E0,-5.948699713E-1,2.145769596E0,9.199118614E0
5.891852764E0,-5.349825025E-1,2.191283941E0,9.199118614E0
5.896903962E0,-4.583264887E-1,2.236798525E0,9.220678329E0
5.901955212E0,-3.936479986E-1,2.260753393E0,9.292543411E0
5.907014639E0,-3.792749941E-1,2.251171589E0,9.352430344E0
5.912065837E0,-3.864614964E-1,2.241589546E0,9.431482315E0
5.917117087E0,-4.128119946E-1,2.258358002E0,9.563234329E0
5.922168285E0,-4.199984968E-1,2.282313108E0,9.730919838E0
5.927219483E0,-4.343715012E-1,2.287103891E0,9.877044678E0
5.932270733E0,-4.750950038E-1,2.253566980E0,9.946514130E0
5.937362087E0,-5.158184767E-1,2.229612112E0,9.956096649E0
5.942413337E0,-5.421689749E-1,2.212843418E0,9.980051041E0
5.947464535E0,-5.709149837E-1,2.193679571E0,9.989633560E0
5.952515785E0,-5.852879882E-1,2.152956009E0,9.908186913E0
5.957566983E0,-6.355934739E-1,2.160142422E0,9.860276222E0
5.962618233E0,-6.260114908E-1,2.155351400E0,9.793202400E0
5.967633493E0,-5.709149837E-1,2.157747030E0,9.750083923E0
5.972684691E0,-5.493555069E-1,2.162538052E0,9.656659126E0
5.977735941E0,-5.397735238E-1,2.172120094E0,9.661450386E0
5.982787191E0,-5.685194731E-1,2.181701899E0,9.711755753E0
5.987838389E0,-5.589374900E-1,2.155351400E0,9.730919838E0
5.992889639E0,-5.709149837E-1,2.162538052E0,9.766852379E0
5.997925993E0,-5.972654819E-1,2.160142422E0,9.774038315E0
6.002977243E0,-5.948699713E-1,2.105046034E0,9.850694656E0
6.008028441E0,-6.499664783E-1,2.121814489E0,9.922559738E0
6.013079691E0,-6.619439721E-1,2.076299906E0,9.917768478E0
6.018130889E0,-7.170404792E-1,2.102650404E0,9.956096649E0
6.023182087E0,-7.769280076E-1,2.126605511E0,9.984842300E0
6.028241150E0,-7.865099907E-1,2.124209881E0,9.948909760E0
6.033292348E0,-8.008829951E-1,2.143373966E0,9.932141304E0
6.038343598E0,-7.170404792E-1,2.181701899E0,9.889022827E0
6.043394796E0,-6.835035086E-1,2.172120094E0,9.819553375E0
6.048445993E0,-6.619439721E-1,2.169724464E0,9.848299026E0
6.053497243E0,-6.475710273E-1,2.176911116E0,9.908186913E0
6.058546462E0,-6.523619890E-1,2.243984938E0,9.946514130E0
6.063597660E0,-6.164295077E-1,2.277522087E0,9.953701019E0
6.068648858E0,-5.613330007E-1,2.296685934E0,9.953701019E0
6.073700056E0,-5.062364936E-1,2.330223083E0,9.879440308E0
6.078751254E0,-4.439535141E-1,2.378133059E0,9.860276222E0
6.083802504E0,-3.720884919E-1,2.416460991E0,9.757269859E0
6.088858077E0,-3.074100018E-1,2.485930443E0,9.627913475E0
6.093909275E0,-2.714774907E-1,2.526654005E0,9.539279938E0
6.098960473E0,-2.571044862E-1,2.502698898E0,9.424295425E0
6.104011671E0,-2.523134947E-1,2.519467592E0,9.282960892E0
6.109062868E0,-2.714774907E-1,2.495512486E0,9.146417618E0
6.114114118E0,-3.433425128E-1,2.438020468E0,9.079343796E0
6.119175473E0,-4.056254923E-1,2.387715101E0,9.050597191E0
6.124226671E0,-4.703040123E-1,2.363759995E0,9.057784081E0
6.129277868E0,-5.733104944E-1,2.294290543E0,9.031433105E0
6.134329066E0,-6.451755166E-1,2.258358002E0,9.064970970E0
6.139380264E0,-7.290179729E-1,2.210448027E0,9.129649162E0
6.144431514E0,-7.673460245E-1,2.191283941E0,9.139230728E0
6.149486827E0,-7.769280076E-1,2.136187553E0,9.179954529E0
6.154538025E0,-7.769280076E-1,2.097859383E0,9.148813248E0
6.159589223E0,-7.649505138E-1,2.145769596E0,9.110485077E0
6.164640421E0,-7.481819987E-1,2.102650404E0,9.103298187E0
6.169691618E0,-7.625550032E-1,2.100255013E0,9.112880707E0
6.174742868E0,-8.200470209E-1,2.071508884E0,9.129649162E0
6.179773493E0,-8.368154764E-1,2.066718102E0,9.237446785E0
6.184824691E0,-8.272334933E-1,2.073904514E0,9.306916237E0
6.189875889E0,-8.272334933E-1,2.090672970E0,9.417108536E0
6.194927139E0,-7.649505138E-1,2.112232447E0,9.467414856E0
6.199978337E0,-7.002720237E-1,2.102650404E0,9.522510529E0
6.205029535E0,-6.212205291E-1,2.148164988E0,9.613539696E0
6.210090681E0,-5.804970264E-1,2.229612112E0,9.647076607E0
6.215141827E0,-5.301914811E-1,2.224821091E0,9.639890671E0
6.220193077E0,-5.349825025E-1,2.229612112E0,9.632703781E0
6.225244275E0,-5.230050087E-1,2.203261614E0,9.630308151E0
6.230295473E0,-5.565419793E-1,2.160142422E0,9.601562500E0
6.235346723E0,-6.068475246E-1,2.160142422E0,9.594375610E0
6.240394483E0,-6.739215255E-1,2.133791924E0,9.577607155E0
6.245445681E0,-6.930854917E-1,2.119419098E0,9.589585304E0
6.250496931E0,-6.811079979E-1,2.124209881E0,9.556048393E0
6.255548129E0,-6.715260148E-1,2.102650404E0,9.469809532E0
6.260599327E0,-6.858990192E-1,2.083486557E0,9.472205162E0
6.265650525E0,-6.906899810E-1,2.109837055E0,9.397945404E0
6.270696358E0,-7.553684711E-1,2.136187553E0,9.405131340E0
6.275747556E0,-7.793235183E-1,2.107441425E0,9.448250771E0
6.280798806E0,-7.793235183E-1,2.105046034E0,9.414713860E0
6.285850004E0,-7.793235183E-1,2.090672970E0,9.405131340E0
6.290901202E0,-7.457864881E-1,2.081090927E0,9.417108536E0
6.295952400E0,-7.074584961E-1,2.078695536E0,9.512928963E0
6.300982973E0,-7.338089943E-1,2.100255013E0,9.548861504E0
6.306034223E0,-6.954810023E-1,2.117023468E0,9.639890671E0
6.311085421E0,-7.026674747E-1,2.114628077E0,9.728524208E0
6.316136618E0,-7.457864881E-1,2.131396532E0,9.704568863E0
6.321187816E0,-7.769280076E-1,2.129000902E0,9.733315468E0
6.326239014E0,-8.032785058E-1,2.155351400E0,9.776433945E0
6.331313702E0,-8.320245147E-1,2.131396532E0,9.709360123E0
6.336364900E0,-8.152559996E-1,2.155351400E0,9.702173233E0
6.341416150E0,-7.745324969E-1,2.155351400E0,9.680614471E0
6.346467348E0,-7.457864881E-1,2.138582945E0,9.661450386E0
6.351518546E0,-7.242270112E-1,2.152956009E0,9.606353760E0
6.356569743E0,-7.146450281E-1,2.210448027E0,9.527301788E0
6.361628493E0,-6.930854917E-1,2.215239048E0,9.460227966E0
6.366679691E0,-6.547574997E-1,2.253566980E0,9.431482315E0
6.371730941E0,-6.308025122E-1,2.277522087E0,9.474600792E0
6.376782139E0,-5.948699713E-1,2.306267977E0,9.503347397E0
6.381833337E0,-5.589374900E-1,2.337409496E0,9.510533333E0
6.386884535E0,-5.709149837E-1,2.358968973E0,9.522510529E0
6.391934118E0,-5.397735238E-1,2.387715101E0,9.524906158E0
6.396985316E0,-5.709149837E-1,2.368551016E0,9.532093048E0
6.402036566E0,-6.164295077E-1,2.339804888E0,9.563234329E0
6.407087764E0,-6.715260148E-1,2.272731066E0,9.577607155E0
6.412138962E0,-6.475710273E-1,2.246380568E0,9.603958130E0
6.417190160E0,-6.475710273E-1,2.229612112E0,9.632703781E0
6.422245212E0,-6.930854917E-1,2.174515486E0,9.663845062E0
6.427296410E0,-6.811079979E-1,2.117023468E0,9.721337318E0
6.432347660E0,-6.547574997E-1,2.078695536E0,9.762061119E0
6.437398858E0,-7.194359899E-1,2.081090927E0,9.776433945E0
6.442450056E0,-7.170404792E-1,2.069113493E0,9.757269859E0
6.447501254E0,-7.386000156E-1,2.030785561E0,9.766852379E0
6.452533858E0,-7.218315005E-1,2.021203518E0,9.771642685E0
6.457585056E0,-7.409955263E-1,1.980479956E0,9.764456749E0
6.462636306E0,-7.553684711E-1,1.975689054E0,9.721337318E0
6.467687504E0,-7.266225219E-1,1.994853020E0,9.675823212E0
6.472738650E0,-7.314134836E-1,1.975689054E0,9.632703781E0
6.477789900E0,-7.433909774E-1,1.915801525E0,9.591980934E0
6.482858546E0,-7.194359899E-1,1.925383449E0,9.560838699E0
6.487909743E0,-7.338089943E-1,2.004435062E0,9.527301788E0
6.492960993E0,-6.691305041E-1,2.025994539E0,9.520115852E0
6.498012191E0,-6.140339971E-1,2.052345037E0,9.467414856E0
6.503063389E0,-5.565419793E-1,2.114628077E0,9.383571625E0
6.508114587E0,-5.277959704E-1,2.157747030E0,9.388362885E0
6.513147452E0,-4.583264887E-1,2.167329073E0,9.448250771E0
6.518198650E0,-4.247894883E-1,2.174515486E0,9.503347397E0
6.523249848E0,-3.912524879E-1,2.205657005E0,9.575211525E0
6.528301046E0,-3.744840026E-1,2.188888550E0,9.651867867E0
6.533352296E0,-3.864614964E-1,2.152956009E0,9.706964493E0
6.538403493E0,-4.367670119E-1,2.117023468E0,9.747688293E0
6.543459171E0,-4.367670119E-1,2.117023468E0,9.762061119E0
6.548510368E0,-4.559310079E-1,2.100255013E0,9.764456749E0
6.553561618E0,-4.870724976E-1,2.095463991E0,9.714151382E0
6.558612764E0,-4.918634892E-1,2.069113493E0,9.639890671E0
6.563664014E0,-5.421689749E-1,2.059531450E0,9.560838699E0
6.568715212E0,-5.733104944E-1,2.049949408E0,9.498556137E0
6.573761358E0,-5.637285113E-1,2.049949408E0,9.455436707E0
6.578812556E0,-5.349825025E-1,2.069113493E0,9.441063881E0
6.583863754E0,-4.846769869E-1,2.059531450E0,9.448250771E0
6.588914952E0,-4.535354972E-1,2.057136059E0,9.453041077E0
6.593966202E0,-4.319759905E-1,2.073904514E0,9.465019226E0
6.599017400E0,-4.583264887E-1,2.131396532E0,9.512928963E0
6.604072452E0,-4.870724976E-1,2.160142422E0,9.570421219E0
6.609123650E0,-5.134230256E-1,2.164933443E0,9.635099411E0
6.614174848E0,-5.349825025E-1,2.172120094E0,9.666240692E0
6.619226046E0,-5.373780131E-1,2.160142422E0,9.697382927E0
6.624277243E0,-5.301914811E-1,2.140978575E0,9.627913475E0
6.629328493E0,-5.517510176E-1,2.112232447E0,9.594375610E0
6.634378546E0,-6.355934739E-1,2.100255013E0,9.580002785E0
6.639429743E0,-6.811079979E-1,2.054740429E0,9.553652763E0
6.644480941E0,-7.098540068E-1,2.016412497E0,9.486578941E0
6.649532139E0,-7.625550032E-1,1.987666488E0,9.357221603E0
6.654583337E0,-7.793235183E-1,1.992457509E0,9.352430344E0
6.659634535E0,-7.960919738E-1,1.956524968E0,9.326080322E0
6.664758337E0,-8.152559996E-1,1.963711500E0,9.330870628E0
6.669809535E0,-8.152559996E-1,1.958920479E0,9.366803169E0
6.674860733E0,-7.817190289E-1,1.954129457E0,9.474600792E0
6.679911931E0,-7.433909774E-1,1.927778959E0,9.524906158E0
6.684963129E0,-7.529730201E-1,1.980479956E0,9.565629959E0
6.690014379E0,-6.811079979E-1,2.016412497E0,9.656659126E0
6.694995577E0,-6.236159801E-1,2.033180952E0,9.685404778E0
6.700046775E0,-5.828924775E-1,1.997248530E0,9.762061119E0
6.705097973E0,-5.134230256E-1,2.035576582E0,9.747688293E0
6.710149171E0,-5.014454722E-1,2.018807888E0,9.730919838E0
6.715200421E0,-5.541465282E-1,2.021203518E0,9.723732948E0
6.720251618E0,-5.972654819E-1,2.054740429E0,9.728524208E0
6.725292712E0,-5.996609926E-1,2.054740429E0,9.735710144E0
6.730343910E0,-5.900790095E-1,2.042762995E0,9.706964493E0
6.735395108E0,-5.517510176E-1,2.064322472E0,9.656659126E0
6.740446306E0,-5.277959704E-1,2.081090927E0,9.613539696E0
6.745497556E0,-5.230050087E-1,2.066718102E0,9.608749390E0
6.750548754E0,-5.565419793E-1,2.064322472E0,9.601562500E0
6.755611879E0,-5.781015158E-1,2.071508884E0,9.627913475E0
6.760663077E0,-5.828924775E-1,2.107441425E0,9.627913475E0
6.765714275E0,-5.924745202E-1,2.066718102E0,9.678218842E0
6.770765473E0,-5.637285113E-1,2.088277578E0,9.654263496E0
6.775816671E0,-4.822815061E-1,2.140978575E0,9.654263496E0
6.780867921E0,-4.559310079E-1,2.155351400E0,9.639890671E0
6.785952608E0,-4.032300115E-1,2.169724464E0,9.575211525E0
6.791003858E0,-3.888570070E-1,2.150560617E0,9.529697418E0
6.796055056E0,-3.984389901E-1,2.169724464E0,9.472205162E0
6.801106254E0,-4.032300115E-1,2.167329073E0,9.450646400E0
6.806157452E0,-4.750950038E-1,2.157747030E0,9.443459511E0
6.811208702E0,-5.134230256E-1,2.129000902E0,9.484183311E0
6.816227296E0,-5.445644855E-1,2.107441425E0,9.548861504E0
6.821278493E0,-5.230050087E-1,2.061927080E0,9.539279938E0
6.826329691E0,-5.086320043E-1,2.047554016E0,9.517720222E0
6.831380889E0,-4.391624928E-1,2.035576582E0,9.496160507E0
6.836432087E0,-4.271849990E-1,2.042762995E0,9.469809532E0
6.841483337E0,-4.679085016E-1,2.105046034E0,9.491369247E0
6.846531410E0,-5.134230256E-1,2.088277578E0,9.484183311E0
6.851582608E0,-5.134230256E-1,2.033180952E0,9.527301788E0
6.856633806E0,-5.373780131E-1,2.042762995E0,9.563234329E0
6.861685004E0,-5.301914811E-1,1.999644041E0,9.596771240E0
6.866736254E0,-5.757060051E-1,1.987666488E0,9.635099411E0
6.871787452E0,-6.020565033E-1,1.982875466E0,9.718941689E0
6.876837243E0,-6.595485210E-1,1.961315989E0,9.790806770E0
6.881888441E0,-7.074584961E-1,1.939756513E0,9.805179596E0
6.886939639E0,-7.146450281E-1,1.932569981E0,9.752478600E0
6.891990837E0,-7.457864881E-1,1.920592546E0,9.781225204E0
6.897042035E0,-7.290179729E-1,1.946943045E0,9.750083923E0
6.902093285E0,-6.930854917E-1,1.975689054E0,9.678218842E0
6.907140941E0,-6.475710273E-1,1.973293543E0,9.618330956E0
6.912192139E0,-6.140339971E-1,1.970898032E0,9.520115852E0
6.917243337E0,-6.188250184E-1,2.002039433E0,9.443459511E0
6.922294535E0,-6.116384864E-1,2.006830454E0,9.429086685E0
6.927345785E0,-5.876834989E-1,2.014017105E0,9.453041077E0
6.932396983E0,-5.613330007E-1,2.014017105E0,9.491369247E0
6.937461410E0,-5.397735238E-1,2.040367603E0,9.556048393E0
6.942512608E0,-5.637285113E-1,2.069113493E0,9.613539696E0
6.947563806E0,-5.301914811E-1,2.069113493E0,9.642286301E0
6.952615004E0,-5.685194731E-1,2.069113493E0,9.697382927E0
6.957666202E0,-6.140339971E-1,2.059531450E0,9.726128578E0
6.962717452E0,-6.260114908E-1,2.042762995E0,9.702173233E0
6.967770941E0,-6.595485210E-1,2.009226084E0,9.625517845E0
6.972822139E0,-6.906899810E-1,1.997248530E0,9.548861504E0
6.977873337E0,-7.050629854E-1,2.018807888E0,9.472205162E0
6.982924535E0,-7.050629854E-1,2.035576582E0,9.371594429E0
6.987975733E0,-7.050629854E-1,2.095463991E0,9.292543411E0
6.993026983E0,-6.475710273E-1,2.105046034E0,9.199118614E0
6.998068233E0,-6.164295077E-1,2.083486557E0,9.112880707E0
7.003119431E0,-5.637285113E-1,2.121814489E0,9.115276337E0
7.008170629E0,-5.445644855E-1,2.162538052E0,9.153603554E0
7.013221827E0,-5.469599962E-1,2.157747030E0,9.215887070E0
7.018273077E0,-5.134230256E-1,2.167329073E0,9.318893433E0
7.023324223E0,-4.918634892E-1,2.143373966E0,9.424295425E0
7.028375785E0,-4.583264887E-1,2.140978575E0,9.508137703E0
7.033426983E0,-4.487445056E-1,2.148164988E0,9.637495041E0
7.038478181E0,-5.277959704E-1,2.131396532E0,9.750083923E0
7.043529379E0,-5.804970264E-1,2.093068600E0,9.826739311E0
7.048580629E0,-6.308025122E-1,2.030785561E0,9.905791283E0
7.053631827E0,-6.691305041E-1,1.994853020E0,9.982446671E0
7.058673233E0,-7.242270112E-1,1.942152023E0,1.003993893E1
7.063724379E0,-7.505775094E-1,1.891846538E0,1.003754330E1
7.068775525E0,-7.505775094E-1,1.855913997E0,9.992029190E0
7.073826671E0,-7.362045050E-1,1.851122975E0,9.941723824E0
7.078877868E0,-7.338089943E-1,1.843936443E0,9.896208763E0
7.083929066E0,-7.050629854E-1,1.860705018E0,9.867463112E0
7.088992452E0,-6.739215255E-1,1.865496039E0,9.896208763E0
7.094043598E0,-6.667349935E-1,1.867891550E0,9.857880592E0
7.099094743E0,-6.140339971E-1,1.899032950E0,9.860276222E0
7.104145889E0,-5.517510176E-1,1.903823972E0,9.879440308E0
7.109197087E0,-5.230050087E-1,1.922988057E0,9.905791283E0
7.114248233E0,-5.038409829E-1,1.918197036E0,9.953701019E0
7.119293910E0,-4.774905145E-1,1.927778959E0,9.982446671E0
7.124345108E0,-4.487445056E-1,1.944547534E0,1.001119328E1
7.129396254E0,-4.511399865E-1,1.920592546E0,1.001598358E1
7.134447400E0,-4.559310079E-1,1.949338555E0,1.001358891E1
7.139498546E0,-4.679085016E-1,1.958920479E0,9.996820450E0
7.144549743E0,-4.846769869E-1,1.937361002E0,1.001837921E1
7.149605577E0,-4.846769869E-1,1.949338555E0,9.999215126E0
7.154656775E0,-5.086320043E-1,1.963711500E0,9.972865105E0
7.159707921E0,-5.038409829E-1,1.951733947E0,9.886627197E0
7.164759066E0,-5.421689749E-1,1.944547534E0,9.881835938E0
7.169810212E0,-5.613330007E-1,1.973293543E0,9.845903397E0
7.174861410E0,-5.230050087E-1,1.985270977E0,9.776433945E0
7.179916254E0,-5.254005194E-1,2.011621475E0,9.750083923E0
7.184967452E0,-4.966545105E-1,1.999644041E0,9.750083923E0
7.190018598E0,-4.774905145E-1,2.028389931E0,9.692591667E0
7.195069743E0,-4.726994932E-1,2.066718102E0,9.651867867E0
7.200120889E0,-4.511399865E-1,2.083486557E0,9.599166870E0
7.205172087E0,-3.912524879E-1,2.124209881E0,9.527301788E0
7.210209118E0,-4.152075052E-1,2.119419098E0,9.429086685E0
7.215260264E0,-4.176029861E-1,2.090672970E0,9.371594429E0
7.220311410E0,-4.391624928E-1,2.102650404E0,9.311706543E0
7.225362556E0,-4.703040123E-1,2.073904514E0,9.244632721E0
7.230413754E0,-5.014454722E-1,2.045158386E0,9.237446785E0
7.235464900E0,-5.517510176E-1,2.028389931E0,9.249423981E0
7.240518233E0,-5.804970264E-1,2.004435062E0,9.227864265E0
7.245569379E0,-6.212205291E-1,1.980479956E0,9.232655525E0
7.250620525E0,-6.355934739E-1,1.961315989E0,9.256610870E0
7.255671671E0,-6.164295077E-1,1.958920479E0,9.359617233E0
7.260722868E0,-6.212205291E-1,1.911010504E0,9.503347397E0
7.265774014E0,-6.284070015E-1,1.915801525E0,9.589585304E0
7.270815473E0,-6.308025122E-1,1.903823972E0,9.659054756E0
7.275866671E0,-6.116384864E-1,1.899032950E0,9.714151382E0
7.280917816E0,-5.900790095E-1,1.920592546E0,9.718941689E0
7.285968962E0,-5.733104944E-1,1.930174470E0,9.671031952E0
7.291020108E0,-5.852879882E-1,1.922988057E0,9.608749390E0
7.296071306E0,-6.260114908E-1,1.911010504E0,9.599166870E0
7.301148910E0,-6.523619890E-1,1.891846538E0,9.553652763E0
7.306200056E0,-6.691305041E-1,1.915801525E0,9.584794044E0
7.311251202E0,-6.523619890E-1,1.930174470E0,9.601562500E0
7.316302400E0,-6.475710273E-1,1.906219482E0,9.587189674E0
7.321353546E0,-6.284070015E-1,1.937361002E0,9.565629959E0
7.326404691E0,-5.876834989E-1,1.956524968E0,9.568025589E0
7.331457712E0,-5.709149837E-1,1.968502522E0,9.548861504E0
7.336508858E0,-5.637285113E-1,1.994853020E0,9.553652763E0
7.341560004E0,-5.541465282E-1,2.037971973E0,9.577607155E0
7.346611202E0,-5.661240220E-1,2.047554016E0,9.541674614E0
7.351662348E0,-5.661240220E-1,2.061927080E0,9.539279938E0
7.356713493E0,-5.852879882E-1,2.049949408E0,9.510533333E0
7.361763129E0,-5.613330007E-1,2.030785561E0,9.534488678E0
7.366814275E0,-5.948699713E-1,2.011621475E0,9.589585304E0
7.371865421E0,-6.116384864E-1,2.006830454E0,9.589585304E0
7.376916566E0,-6.331980228E-1,1.994853020E0,9.611144066E0
7.381967764E0,-6.331980228E-1,1.997248530E0,9.639890671E0
7.387018910E0,-6.116384864E-1,1.982875466E0,9.687800407E0
7.392027816E0,-5.804970264E-1,1.985270977E0,9.728524208E0
7.397078910E0,-5.661240220E-1,2.006830454E0,9.711755753E0
7.402130056E0,-5.421689749E-1,1.982875466E0,9.774038315E0
7.407181254E0,-5.373780131E-1,1.992457509E0,9.826739311E0
7.412232400E0,-5.254005194E-1,2.009226084E0,9.843507767E0
7.417283546E0,-4.942589998E-1,2.009226084E0,9.841112137E0
7.422380108E0,-5.158184767E-1,1.994853020E0,9.809970856E0
7.427431254E0,-5.349825025E-1,2.040367603E0,9.814762115E0
7.432482400E0,-5.469599962E-1,2.069113493E0,9.764456749E0
7.437533598E0,-5.277959704E-1,2.071508884E0,9.699777603E0
7.442584743E0,-5.086320043E-1,2.105046034E0,9.584794044E0
7.447635889E0,-5.493555069E-1,2.129000902E0,9.524906158E0
7.452658389E0,-5.397735238E-1,2.150560617E0,9.465019226E0
7.457709587E0,-4.942589998E-1,2.150560617E0,9.448250771E0
7.462760733E0,-5.014454722E-1,2.176911116E0,9.448250771E0
7.467811879E0,-5.062364936E-1,2.174515486E0,9.448250771E0
7.472863077E0,-4.822815061E-1,2.155351400E0,9.419504166E0
7.477914223E0,-4.822815061E-1,2.181701899E0,9.431482315E0
7.482983806E0,-4.918634892E-1,2.157747030E0,9.472205162E0
7.488034952E0,-4.990499914E-1,2.172120094E0,9.476996422E0
7.493086098E0,-4.942589998E-1,2.220030069E0,9.493764877E0
7.498137296E0,-4.894680083E-1,2.174515486E0,9.493764877E0
7.503188441E0,-4.583264887E-1,2.203261614E0,9.484183311E0
7.508239587E0,-4.583264887E-1,2.188888550E0,9.520115852E0
7.513287087E0,-4.750950038E-1,2.196074963E0,9.584794044E0
7.518338233E0,-5.038409829E-1,2.208052397E0,9.637495041E0
7.523389379E0,-5.110275149E-1,2.200865984E0,9.690196037E0
7.528440525E0,-5.206094980E-1,2.157747030E0,9.733315468E0
7.533491723E0,-5.062364936E-1,2.150560617E0,9.675823212E0
7.538542868E0,-5.301914811E-1,2.136187553E0,9.656659126E0
7.543600577E0,-5.493555069E-1,2.124209881E0,9.625517845E0
7.548651775E0,-5.589374900E-1,2.114628077E0,9.570421219E0
7.553702921E0,-6.116384864E-1,2.107441425E0,9.544070244E0
7.558754118E0,-6.355934739E-1,2.093068600E0,9.534488678E0
7.563805264E0,-6.595485210E-1,2.107441425E0,9.563234329E0
7.568856410E0,-6.451755166E-1,2.088277578E0,9.575211525E0
7.573897712E0,-6.451755166E-1,2.073904514E0,9.603958130E0
7.578948858E0,-6.403844953E-1,2.093068600E0,9.608749390E0
7.584000004E0,-5.900790095E-1,2.076299906E0,9.632703781E0
7.589051150E0,-5.637285113E-1,2.117023468E0,9.637495041E0
7.594102348E0,-5.685194731E-1,2.138582945E0,9.591980934E0
7.599153493E0,-5.469599962E-1,2.131396532E0,9.551257133E0
7.604224223E0,-5.421689749E-1,2.169724464E0,9.472205162E0
7.609275368E0,-5.230050087E-1,2.215239048E0,9.407526970E0
7.614326514E0,-5.325869918E-1,2.217634439E0,9.400340080E0
7.619377660E0,-5.421689749E-1,2.215239048E0,9.359617233E0
7.624428858E0,-5.445644855E-1,2.232007504E0,9.412318230E0
7.629480056E0,-5.086320043E-1,2.260753393E0,9.441063881E0
7.634563129E0,-4.726994932E-1,2.248775959E0,9.412318230E0
7.639614327E0,-4.559310079E-1,2.251171589E0,9.484183311E0
7.644665473E0,-4.703040123E-1,2.251171589E0,9.551257133E0
7.649716618E0,-5.134230256E-1,2.255962610E0,9.608749390E0
7.654767764E0,-5.206094980E-1,2.253566980E0,9.671031952E0
7.659818962E0,-5.565419793E-1,2.227216482E0,9.728524208E0
7.664830108E0,-5.517510176E-1,2.210448027E0,9.733315468E0
7.669881306E0,-5.757060051E-1,2.196074963E0,9.639890671E0
7.674932452E0,-5.757060051E-1,2.198470592E0,9.558443069E0
7.679983598E0,-5.421689749E-1,2.184097528E0,9.481787682E0
7.685034743E0,-5.972654819E-1,2.140978575E0,9.460227966E0
7.690085941E0,-5.948699713E-1,2.193679571E0,9.438668251E0
7.695128233E0,-5.924745202E-1,2.169724464E0,9.469809532E0
7.700179431E0,-5.685194731E-1,2.162538052E0,9.512928963E0
7.705230577E0,-5.230050087E-1,2.162538052E0,9.534488678E0
7.710281723E0,-5.182139874E-1,2.160142422E0,9.587189674E0
7.715332921E0,-5.349825025E-1,2.140978575E0,9.647076607E0
7.720384066E0,-5.685194731E-1,2.160142422E0,9.704568863E0
7.725437973E0,-5.565419793E-1,2.143373966E0,9.726128578E0
7.730489171E0,-6.140339971E-1,2.114628077E0,9.759665489E0
7.735540316E0,-6.523619890E-1,2.133791924E0,9.877044678E0
7.740591514E0,-6.643394828E-1,2.136187553E0,9.908186913E0
7.745642660E0,-6.691305041E-1,2.138582945E0,9.874649048E0
7.750693806E0,-6.787124872E-1,2.093068600E0,9.836321831E0
7.755761098E0,-6.499664783E-1,2.117023468E0,9.781225204E0
7.760812296E0,-6.547574997E-1,2.124209881E0,9.750083923E0
7.765863389E0,-6.882944703E-1,2.126605511E0,9.663845062E0
7.770914535E0,-6.355934739E-1,2.136187553E0,9.623122215E0
7.775965733E0,-6.475710273E-1,2.131396532E0,9.568025589E0
7.781016879E0,-6.547574997E-1,2.138582945E0,9.517720222E0
7.786057035E0,-6.547574997E-1,2.152956009E0,9.510533333E0
7.791108181E0,-6.379889846E-1,2.148164988E0,9.493764877E0
7.796159327E0,-6.595485210E-1,2.143373966E0,9.496160507E0
7.801210473E0,-7.002720237E-1,2.131396532E0,9.524906158E0
7.806261671E0,-6.882944703E-1,2.107441425E0,9.508137703E0
7.811312816E0,-6.954810023E-1,2.119419098E0,9.462623596E0
7.816358285E0,-6.571530104E-1,2.160142422E0,9.405131340E0
7.821409483E0,-6.739215255E-1,2.167329073E0,9.306916237E0
7.826460629E0,-6.595485210E-1,2.188888550E0,9.208700180E0
7.831511775E0,-6.667349935E-1,2.196074963E0,9.177558899E0
7.836562973E0,-6.715260148E-1,2.203261614E0,9.170372963E0
7.841614118E0,-6.188250184E-1,2.212843418E0,9.088925362E0
7.846681618E0,-6.212205291E-1,2.205657005E0,9.081739426E0
7.851732816E0,-6.140339971E-1,2.200865984E0,9.091320992E0
7.856783962E0,-6.427800059E-1,2.169724464E0,9.170372963E0
7.861835108E0,-6.930854917E-1,2.172120094E0,9.345244408E0
7.866886254E0,-7.433909774E-1,2.179306507E0,9.448250771E0
7.871937452E0,-7.505775094E-1,2.145769596E0,9.491369247E0
7.876997712E0,-7.984874845E-1,2.114628077E0,9.563234329E0
7.882048858E0,-7.601594925E-1,2.131396532E0,9.570421219E0
7.887100056E0,-8.008829951E-1,2.157747030E0,9.527301788E0
7.892151202E0,-7.865099907E-1,2.196074963E0,9.469809532E0
7.897202348E0,-7.433909774E-1,2.229612112E0,9.424295425E0
7.902253493E0,-7.194359899E-1,2.251171589E0,9.316497803E0
7.907287868E0,-6.667349935E-1,2.263149023E0,9.203909874E0
7.912339066E0,-5.996609926E-1,2.243984938E0,9.098507881E0
7.917390212E0,-6.140339971E-1,2.210448027E0,9.055388451E0
7.922441358E0,-6.068475246E-1,2.222425461E0,9.048201561E0
7.927492556E0,-6.212205291E-1,2.198470592E0,9.062575340E0
7.932543702E0,-6.140339971E-1,2.198470592E0,9.129649162E0
7.937600473E0,-6.236159801E-1,2.169724464E0,9.275774956E0
7.942651671E0,-6.475710273E-1,2.138582945E0,9.433877945E0
7.947702764E0,-6.571530104E-1,2.117023468E0,9.647076607E0
7.952753910E0,-7.002720237E-1,2.095463991E0,9.807575226E0
7.957805108E0,-7.098540068E-1,2.107441425E0,9.924955368E0
7.962856254E0,-6.403844953E-1,2.085881948E0,9.989633560E0
7.967966150E0,-6.308025122E-1,2.057136059E0,9.970469475E0
7.973017296E0,-6.475710273E-1,2.069113493E0,9.905791283E0
7.978068441E0,-6.835035086E-1,2.088277578E0,9.745292664E0
7.983119587E0,-6.930854917E-1,2.117023468E0,9.582398415E0
7.988170785E0,-6.858990192E-1,2.112232447E0,9.443459511E0
7.993221983E0,-6.547574997E-1,2.124209881E0,9.342848778E0
7.998204223E0,-6.068475246E-1,2.150560617E0,9.318893433E0
8.003255421E0,-5.900790095E-1,2.129000902E0,9.333266258E0
8.008306566E0,-5.852879882E-1,2.109837055E0,9.342848778E0
8.013357712E0,-5.661240220E-1,2.148164988E0,9.400340080E0
8.018408858E0,-6.020565033E-1,2.164933443E0,9.465019226E0
8.023460056E0,-6.236159801E-1,2.160142422E0,9.548861504E0
8.028517868E0,-6.427800059E-1,2.152956009E0,9.656659126E0
8.033569066E0,-6.523619890E-1,2.140978575E0,9.685404778E0
8.038620212E0,-6.427800059E-1,2.112232447E0,9.726128578E0
8.043671358E0,-5.972654819E-1,2.121814489E0,9.781225204E0
8.048722504E0,-6.188250184E-1,2.083486557E0,9.833926201E0
8.053773702E0,-6.403844953E-1,2.093068600E0,9.819553375E0
8.058815421E0,-6.571530104E-1,2.066718102E0,9.829134941E0
8.063866618E0,-6.355934739E-1,2.066718102E0,9.752478600E0
8.068917816E0,-6.331980228E-1,2.081090927E0,9.699777603E0
8.073969014E0,-6.451755166E-1,2.059531450E0,9.632703781E0
8.079020264E0,-6.858990192E-1,2.042762995E0,9.563234329E0
8.084071462E0,-7.481819987E-1,2.061927080E0,9.520115852E0
8.089127348E0,-7.625550032E-1,1.992457509E0,9.488973618E0
8.094178546E0,-7.817190289E-1,1.990061998E0,9.448250771E0
8.099229743E0,-7.865099907E-1,1.994853020E0,9.441063881E0
8.104280993E0,-7.960919738E-1,2.023598909E0,9.488973618E0
8.109332139E0,-7.553684711E-1,1.990061998E0,9.493764877E0
8.114383389E0,-7.218315005E-1,1.970898032E0,9.474600792E0
8.119448858E0,-7.098540068E-1,2.021203518E0,9.596771240E0
8.124500056E0,-6.763169765E-1,2.030785561E0,9.623122215E0
8.129551254E0,-6.930854917E-1,2.035576582E0,9.654263496E0
8.134602504E0,-6.906899810E-1,2.069113493E0,9.716546059E0
8.139653702E0,-7.026674747E-1,2.071508884E0,9.754874229E0
8.144704900E0,-6.739215255E-1,2.064322472E0,9.764456749E0
8.149733702E0,-6.547574997E-1,2.035576582E0,9.733315468E0
8.154784900E0,-6.092429757E-1,2.049949408E0,9.706964493E0
8.159836098E0,-5.541465282E-1,2.069113493E0,9.618330956E0
8.164887296E0,-5.493555069E-1,2.088277578E0,9.493764877E0
8.169938546E0,-6.020565033E-1,2.097859383E0,9.503347397E0
8.174989743E0,-6.355934739E-1,2.105046034E0,9.493764877E0
8.180057556E0,-6.595485210E-1,2.095463991E0,9.481787682E0
8.185108754E0,-6.619439721E-1,2.078695536E0,9.450646400E0
8.190159952E0,-6.954810023E-1,2.069113493E0,9.421899796E0
8.195211150E0,-7.218315005E-1,2.076299906E0,9.426691055E0
8.200262400E0,-7.242270112E-1,2.105046034E0,9.481787682E0
8.205313598E0,-6.906899810E-1,2.090672970E0,9.517720222E0
8.210349639E0,-6.739215255E-1,2.071508884E0,9.510533333E0
8.215400837E0,-6.643394828E-1,2.085881948E0,9.503347397E0
8.220452035E0,-6.188250184E-1,2.076299906E0,9.582398415E0
8.225503233E0,-5.589374900E-1,2.078695536E0,9.603958130E0
8.230554483E0,-5.301914811E-1,2.083486557E0,9.647076607E0
8.235605681E0,-5.110275149E-1,2.045158386E0,9.659054756E0
8.240663181E0,-4.846769869E-1,2.069113493E0,9.663845062E0
8.245714379E0,-4.750950038E-1,2.102650404E0,9.692591667E0
8.250765577E0,-4.870724976E-1,2.076299906E0,9.764456749E0
8.255816775E0,-4.583264887E-1,2.109837055E0,9.769247055E0
8.260868025E0,-4.703040123E-1,2.105046034E0,9.766852379E0
8.265919223E0,-5.014454722E-1,2.078695536E0,9.781225204E0
8.270971410E0,-5.301914811E-1,2.057136059E0,9.766852379E0
8.276022608E0,-5.828924775E-1,2.066718102E0,9.704568863E0
8.281073806E0,-6.188250184E-1,2.023598909E0,9.639890671E0
8.286125004E0,-6.284070015E-1,1.980479956E0,9.544070244E0
8.291176254E0,-6.619439721E-1,2.016412497E0,9.481787682E0
8.296227400E0,-6.691305041E-1,2.030785561E0,9.421899796E0
8.301306983E0,-6.715260148E-1,2.009226084E0,9.364407539E0
8.306358181E0,-6.499664783E-1,2.021203518E0,9.390758514E0
8.311409379E0,-6.140339971E-1,1.997248530E0,9.491369247E0
8.316460629E0,-6.188250184E-1,2.042762995E0,9.520115852E0
8.321511827E0,-5.493555069E-1,2.105046034E0,9.568025589E0
8.326563025E0,-4.918634892E-1,2.061927080E0,9.623122215E0
8.331587504E0,-4.870724976E-1,2.085881948E0,9.606353760E0
8.336638702E0,-5.086320043E-1,2.078695536E0,9.608749390E0
8.341689952E0,-5.565419793E-1,2.021203518E0,9.637495041E0
8.346741150E0,-5.589374900E-1,2.014017105E0,9.608749390E0
8.351792348E0,-5.469599962E-1,2.011621475E0,9.639890671E0
8.356843598E0,-5.541465282E-1,1.997248530E0,9.709360123E0
8.361898181E0,-5.757060051E-1,1.968502522E0,9.774038315E0
8.366949379E0,-5.757060051E-1,1.956524968E0,9.831530571E0
8.372000629E0,-6.284070015E-1,1.966107011E0,9.903395653E0
8.377051827E0,-6.835035086E-1,1.954129457E0,9.951305389E0
8.382103025E0,-7.338089943E-1,1.939756513E0,9.953701019E0
8.387154223E0,-7.505775094E-1,1.932569981E0,9.948909760E0
8.392195941E0,-7.745324969E-1,1.937361002E0,9.915372849E0
8.397247139E0,-8.152559996E-1,1.932569981E0,9.838717461E0
8.402298337E0,-7.841144800E-1,1.961315989E0,9.714151382E0
8.407349587E0,-7.457864881E-1,1.949338555E0,9.611144066E0
8.412400785E0,-6.858990192E-1,2.009226084E0,9.508137703E0
8.417451983E0,-6.068475246E-1,2.037971973E0,9.472205162E0
8.422511202E0,-5.493555069E-1,2.066718102E0,9.405131340E0
8.427562400E0,-5.637285113E-1,2.117023468E0,9.407526970E0
8.432613650E0,-5.206094980E-1,2.138582945E0,9.443459511E0
8.437664848E0,-5.134230256E-1,2.172120094E0,9.491369247E0
8.442716046E0,-5.110275149E-1,2.184097528E0,9.577607155E0
8.447767243E0,-4.894680083E-1,2.224821091E0,9.639890671E0
8.452819118E0,-4.942589998E-1,2.203261614E0,9.721337318E0
8.457870316E0,-4.726994932E-1,2.193679571E0,9.790806770E0
8.462921566E0,-5.134230256E-1,2.188888550E0,9.752478600E0
8.467972764E0,-5.637285113E-1,2.160142422E0,9.793202400E0
8.473023962E0,-6.140339971E-1,2.160142422E0,9.826739311E0
8.478075160E0,-6.691305041E-1,2.167329073E0,9.829134941E0
8.483113233E0,-6.427800059E-1,2.169724464E0,9.807575226E0
8.488164431E0,-6.499664783E-1,2.152956009E0,9.747688293E0
8.493215681E0,-6.787124872E-1,2.169724464E0,9.694987297E0
8.498266879E0,-6.906899810E-1,2.164933443E0,9.656659126E0
8.503318077E0,-6.427800059E-1,2.131396532E0,9.582398415E0
8.508369275E0,-5.996609926E-1,2.136187553E0,9.560838699E0
8.513391046E0,-5.469599962E-1,2.157747030E0,9.529697418E0
8.518442243E0,-5.325869918E-1,2.150560617E0,9.553652763E0
8.523493493E0,-5.206094980E-1,2.140978575E0,9.560838699E0
8.528544691E0,-5.110275149E-1,2.152956009E0,9.618330956E0
8.533595889E0,-4.990499914E-1,2.152956009E0,9.630308151E0
8.538647087E0,-4.703040123E-1,2.145769596E0,9.668636322E0
8.543700473E0,-4.511399865E-1,2.155351400E0,9.706964493E0
8.548751671E0,-4.822815061E-1,2.126605511E0,9.723732948E0
8.553802868E0,-5.206094980E-1,2.129000902E0,9.723732948E0
8.558854066E0,-5.206094980E-1,2.105046034E0,9.752478600E0
8.563905264E0,-5.254005194E-1,2.112232447E0,9.774038315E0
8.568956514E0,-5.661240220E-1,2.095463991E0,9.762061119E0
8.574041306E0,-5.685194731E-1,2.069113493E0,9.754874229E0
8.579092504E0,-5.948699713E-1,2.085881948E0,9.750083923E0
8.584143754E0,-5.828924775E-1,2.097859383E0,9.685404778E0
8.589194952E0,-6.236159801E-1,2.105046034E0,9.663845062E0
8.594246150E0,-5.685194731E-1,2.150560617E0,9.644681931E0
8.599297348E0,-5.589374900E-1,2.167329073E0,9.587189674E0
8.604347660E0,-5.517510176E-1,2.155351400E0,9.534488678E0
8.609398858E0,-5.062364936E-1,2.162538052E0,9.412318230E0
8.614450108E0,-5.182139874E-1,2.191283941E0,9.338057518E0
8.619501306E0,-5.373780131E-1,2.174515486E0,9.302124977E0
8.624552504E0,-5.541465282E-1,2.167329073E0,9.292543411E0
8.629603702E0,-5.709149837E-1,2.152956009E0,9.261401176E0
8.634619535E0,-5.900790095E-1,2.138582945E0,9.232655525E0
8.639670733E0,-5.661240220E-1,2.148164988E0,9.309311867E0
8.644721931E0,-5.254005194E-1,2.119419098E0,9.357221603E0
8.649773181E0,-5.493555069E-1,2.107441425E0,9.479392052E0
8.654824379E0,-5.781015158E-1,2.109837055E0,9.625517845E0
8.659875577E0,-5.972654819E-1,2.064322472E0,9.800389290E0
8.664962504E0,-6.044520140E-1,2.069113493E0,9.891418457E0
8.670013702E0,-5.900790095E-1,2.105046034E0,9.934536934E0
8.675064952E0,-6.116384864E-1,2.100255013E0,9.941723824E0
8.680116150E0,-6.092429757E-1,2.114628077E0,9.936932564E0
8.685167348E0,-6.331980228E-1,2.102650404E0,9.908186913E0
8.690218546E0,-6.643394828E-1,2.126605511E0,9.764456749E0
8.695266150E0,-6.499664783E-1,2.121814489E0,9.606353760E0
8.700317348E0,-6.427800059E-1,2.162538052E0,9.472205162E0
8.705368546E0,-6.236159801E-1,2.138582945E0,9.316497803E0
8.710419796E0,-5.828924775E-1,2.160142422E0,9.244632721E0
8.715470993E0,-5.804970264E-1,2.150560617E0,9.179954529E0
8.720522191E0,-5.445644855E-1,2.188888550E0,9.122462273E0
8.725581827E0,-5.158184767E-1,2.179306507E0,9.117671967E0
8.730633025E0,-4.679085016E-1,2.222425461E0,9.184745789E0
8.735684223E0,-4.439535141E-1,2.241589546E0,9.268588066E0
8.740735421E0,-4.343715012E-1,2.248775959E0,9.318893433E0
8.745786671E0,-4.487445056E-1,2.272731066E0,9.453041077E0
8.750837868E0,-4.559310079E-1,2.272731066E0,9.505742073E0
8.755881671E0,-4.679085016E-1,2.227216482E0,9.503347397E0
8.760932868E0,-4.822815061E-1,2.203261614E0,9.563234329E0
8.765984066E0,-5.421689749E-1,2.143373966E0,9.536884308E0
8.771035264E0,-5.709149837E-1,2.090672970E0,9.517720222E0
8.776086514E0,-5.900790095E-1,2.049949408E0,9.568025589E0
8.781137712E0,-6.475710273E-1,2.018807888E0,9.577607155E0
8.786190316E0,-7.050629854E-1,2.009226084E0,9.603958130E0
8.791241514E0,-7.074584961E-1,1.985270977E0,9.618330956E0
8.796292712E0,-7.002720237E-1,1.985270977E0,9.608749390E0
8.801343910E0,-6.427800059E-1,1.985270977E0,9.651867867E0
8.806395160E0,-6.763169765E-1,1.973293543E0,9.625517845E0
8.811446358E0,-6.571530104E-1,1.968502522E0,9.611144066E0
8.816535733E0,-6.571530104E-1,1.963711500E0,9.603958130E0
8.821586879E0,-6.595485210E-1,1.958920479E0,9.599166870E0
8.826638129E0,-6.643394828E-1,1.961315989E0,9.599166870E0
8.831689327E0,-6.763169765E-1,1.937361002E0,9.599166870E0
8.836740525E0,-7.218315005E-1,1.968502522E0,9.591980934E0
8.841791723E0,-6.930854917E-1,1.982875466E0,9.623122215E0
8.846797556E0,-6.906899810E-1,2.018807888E0,9.637495041E0
8.851848754E0,-6.691305041E-1,2.040367603E0,9.599166870E0
8.856900004E0,-7.026674747E-1,2.097859383E0,9.649472237E0
8.861951202E0,-6.787124872E-1,2.138582945E0,9.685404778E0
8.867002452E0,-6.379889846E-1,2.140978575E0,9.671031952E0
8.872053598E0,-5.996609926E-1,2.186492920E0,9.635099411E0
8.877083025E0,-5.469599962E-1,2.210448027E0,9.582398415E0
8.882134223E0,-4.894680083E-1,2.220030069E0,9.582398415E0
8.887185421E0,-4.870724976E-1,2.248775959E0,9.476996422E0
8.892236618E0,-4.870724976E-1,2.282313108E0,9.390758514E0
8.897287816E0,-4.966545105E-1,2.294290543E0,9.407526970E0
8.902339066E0,-5.277959704E-1,2.260753393E0,9.350034714E0
8.907418389E0,-5.086320043E-1,2.282313108E0,9.381176949E0
8.912469587E0,-4.966545105E-1,2.270335436E0,9.465019226E0
8.917520837E0,-5.110275149E-1,2.253566980E0,9.469809532E0
8.922572035E0,-4.942589998E-1,2.272731066E0,9.476996422E0
8.927623233E0,-4.703040123E-1,2.232007504E0,9.476996422E0
8.932674431E0,-4.703040123E-1,2.236798525E0,9.524906158E0
8.937731775E0,-5.230050087E-1,2.246380568E0,9.599166870E0
8.942782973E0,-5.206094980E-1,2.248775959E0,9.649472237E0
8.947834171E0,-5.134230256E-1,2.222425461E0,9.627913475E0
8.952885421E0,-5.373780131E-1,2.224821091E0,9.639890671E0
8.957936618E0,-5.254005194E-1,2.243984938E0,9.627913475E0
8.962987816E0,-5.445644855E-1,2.212843418E0,9.668636322E0
8.968024848E0,-5.661240220E-1,2.212843418E0,9.671031952E0
8.973076098E0,-5.373780131E-1,2.193679571E0,9.704568863E0
8.978127296E0,-5.206094980E-1,2.212843418E0,9.706964493E0
8.983178493E0,-4.894680083E-1,2.212843418E0,9.668636322E0
8.988229743E0,-4.559310079E-1,2.212843418E0,9.611144066E0
8.993280941E0,-4.391624928E-1,2.205657005E0,9.527301788E0
8.998386046E0,-4.559310079E-1,2.210448027E0,9.465019226E0
9.003437243E0,-4.679085016E-1,2.200865984E0,9.431482315E0
9.008488441E0,-4.583264887E-1,2.203261614E0,9.385967255E0
9.013539639E0,-5.062364936E-1,2.176911116E0,9.362012863E0
9.018590889E0,-5.828924775E-1,2.138582945E0,9.352430344E0
9.023642087E0,-6.068475246E-1,2.105046034E0,9.342848778E0
9.028669223E0,-6.140339971E-1,2.083486557E0,9.306916237E0
9.033720421E0,-6.523619890E-1,2.083486557E0,9.326080322E0
9.038771618E0,-6.739215255E-1,2.105046034E0,9.402735710E0
9.043822816E0,-6.547574997E-1,2.073904514E0,9.460227966E0
9.048874066E0,-6.499664783E-1,2.078695536E0,9.517720222E0
9.053925264E0,-6.451755166E-1,2.054740429E0,9.601562500E0
9.058966827E0,-6.475710273E-1,2.040367603E0,9.649472237E0
9.064018077E0,-6.499664783E-1,2.100255013E0,9.747688293E0
9.069069327E0,-6.451755166E-1,2.073904514E0,9.759665489E0
9.074120577E0,-6.331980228E-1,2.095463991E0,9.723732948E0
9.079171879E0,-6.427800059E-1,2.059531450E0,9.709360123E0
9.084223129E0,-6.858990192E-1,2.045158386E0,9.709360123E0
9.089266879E0,-7.266225219E-1,2.047554016E0,9.716546059E0
9.094318129E0,-7.314134836E-1,2.025994539E0,9.714151382E0
9.099369379E0,-7.194359899E-1,1.980479956E0,9.697382927E0
9.104420629E0,-7.290179729E-1,2.009226084E0,9.651867867E0
9.109471879E0,-6.811079979E-1,1.954129457E0,9.644681931E0
9.114523181E0,-6.571530104E-1,1.987666488E0,9.656659126E0
9.119565889E0,-6.787124872E-1,1.994853020E0,9.654263496E0
9.124617139E0,-6.882944703E-1,1.987666488E0,9.627913475E0
9.129668389E0,-6.906899810E-1,1.994853020E0,9.666240692E0
9.134719639E0,-7.074584961E-1,2.004435062E0,9.649472237E0
9.139770889E0,-6.643394828E-1,2.021203518E0,9.606353760E0
9.144822191E0,-5.852879882E-1,2.023598909E0,9.560838699E0
9.149880941E0,-5.828924775E-1,2.064322472E0,9.527301788E0
9.154932191E0,-5.828924775E-1,2.088277578E0,9.558443069E0
9.159983441E0,-5.493555069E-1,2.112232447E0,9.508137703E0
9.165034691E0,-5.277959704E-1,2.114628077E0,9.476996422E0
9.170085941E0,-5.325869918E-1,2.109837055E0,9.529697418E0
9.175137243E0,-5.517510176E-1,2.117023468E0,9.534488678E0
9.180199900E0,-5.781015158E-1,2.136187553E0,9.582398415E0
9.185251150E0,-6.164295077E-1,2.143373966E0,9.649472237E0
9.190302400E0,-6.020565033E-1,2.164933443E0,9.726128578E0
9.195353650E0,-5.661240220E-1,2.179306507E0,9.817157745E0
9.200404900E0,-5.277959704E-1,2.208052397E0,9.812366486E0
9.205456150E0,-4.631175101E-1,2.232007504E0,9.826739311E0
9.210485577E0,-4.223940074E-1,2.282313108E0,9.826739311E0
9.215536827E0,-3.960435092E-1,2.306267977E0,9.841112137E0
9.220588077E0,-3.744840026E-1,2.301476955E0,9.680614471E0
9.225639379E0,-3.816705048E-1,2.313454390E0,9.584794044E0
9.230690577E0,-3.337605000E-1,2.318245411E0,9.496160507E0
9.235741827E0,-2.930369973E-1,2.323036432E0,9.455436707E0
9.240794535E0,-2.642909884E-1,2.361364603E0,9.388362885E0
9.245845785E0,-2.091944963E-1,2.373342037E0,9.350034714E0
9.250897035E0,-1.708665043E-1,2.375737429E0,9.338057518E0
9.255948337E0,-1.828439981E-1,2.404483557E0,9.393154144E0
9.260999587E0,-1.205610037E-1,2.399692535E0,9.453041077E0
9.266050837E0,-1.421204954E-1,2.373342037E0,9.522510529E0
9.271099014E0,-1.972170025E-1,2.344595909E0,9.637495041E0
9.276150264E0,-2.834550142E-1,2.306267977E0,9.793202400E0
9.281201514E0,-3.792749941E-1,2.239193916E0,9.968073845E0
9.286252764E0,-4.894680083E-1,2.176911116E0,1.006389427E1
9.291304014E0,-5.325869918E-1,2.152956009E0,1.009024429E1
9.296355316E0,-5.757060051E-1,2.088277578E0,1.013096809E1
9.301421358E0,-6.236159801E-1,2.071508884E0,1.007347584E1
9.306472608E0,-6.571530104E-1,2.069113493E0,9.956096649E0
9.311523858E0,-7.050629854E-1,2.078695536E0,9.855485916E0
9.316575160E0,-7.386000156E-1,2.114628077E0,9.742897034E0
9.321626410E0,-6.858990192E-1,2.126605511E0,9.577607155E0
9.326677660E0,-5.996609926E-1,2.095463991E0,9.409922600E0
9.331713389E0,-5.589374900E-1,2.083486557E0,9.256610870E0
9.336764639E0,-5.110275149E-1,2.143373966E0,9.177558899E0
9.341815889E0,-5.158184767E-1,2.164933443E0,9.132044792E0
9.346867139E0,-5.421689749E-1,2.172120094E0,9.103298187E0
9.351918389E0,-5.325869918E-1,2.184097528E0,9.139230728E0
9.356969639E0,-5.062364936E-1,2.167329073E0,9.144021988E0
9.362027816E0,-4.918634892E-1,2.210448027E0,9.177558899E0
9.367079118E0,-5.373780131E-1,2.196074963E0,9.311706543E0
9.372130368E0,-5.757060051E-1,2.184097528E0,9.419504166E0
9.377181618E0,-6.212205291E-1,2.196074963E0,9.510533333E0
9.382232868E0,-6.308025122E-1,2.179306507E0,9.599166870E0
9.387284118E0,-6.475710273E-1,2.148164988E0,9.642286301E0
9.392324014E0,-6.547574997E-1,2.131396532E0,9.666240692E0
9.397375316E0,-6.595485210E-1,2.119419098E0,9.625517845E0
9.402426566E0,-6.858990192E-1,2.117023468E0,9.560838699E0
9.407477816E0,-7.122495174E-1,2.109837055E0,9.467414856E0
9.412529066E0,-7.194359899E-1,2.107441425E0,9.378781319E0
9.417580316E0,-7.290179729E-1,2.129000902E0,9.290147781E0
9.422639587E0,-7.098540068E-1,2.102650404E0,9.144021988E0
9.427690889E0,-6.715260148E-1,2.090672970E0,9.038619995E0
9.432742139E0,-6.427800059E-1,2.117023468E0,8.988314629E0
9.437793389E0,-6.667349935E-1,2.114628077E0,8.990710258E0
9.442844587E0,-6.308025122E-1,2.138582945E0,9.029038429E0
9.447895837E0,-6.188250184E-1,2.150560617E0,9.067365646E0
9.452937868E0,-6.571530104E-1,2.150560617E0,9.227864265E0
9.457989171E0,-6.403844953E-1,2.117023468E0,9.381176949E0
9.463040421E0,-6.451755166E-1,2.112232447E0,9.524906158E0
9.468091671E0,-6.930854917E-1,2.093068600E0,9.683009148E0
9.473142921E0,-6.835035086E-1,2.045158386E0,9.814762115E0
9.478194171E0,-7.433909774E-1,2.040367603E0,9.958492279E0
9.483257191E0,-8.032785058E-1,2.033180952E0,1.004233456E1
9.488308493E0,-7.913010120E-1,1.992457509E0,1.013815403E1
9.493359743E0,-7.409955263E-1,1.982875466E0,1.016690063E1
9.498410993E0,-7.242270112E-1,1.951733947E0,1.006628990E1
9.503462243E0,-6.763169765E-1,1.958920479E0,1.006389427E1
9.508513493E0,-6.667349935E-1,1.994853020E0,1.002317047E1
9.513554743E0,-6.858990192E-1,1.999644041E0,9.912977219E0
9.518606046E0,-6.882944703E-1,1.980479956E0,9.877044678E0
9.523657296E0,-6.571530104E-1,1.978084445E0,9.819553375E0
9.528708598E0,-6.523619890E-1,2.030785561E0,9.730919838E0
9.533759796E0,-6.020565033E-1,2.054740429E0,9.651867867E0
9.538811046E0,-5.972654819E-1,2.088277578E0,9.627913475E0
9.543863025E0,-5.373780131E-1,2.131396532E0,9.565629959E0
9.548914275E0,-4.894680083E-1,2.148164988E0,9.568025589E0
9.553965577E0,-4.798859954E-1,2.143373966E0,9.587189674E0
9.559016827E0,-4.750950038E-1,2.205657005E0,9.563234329E0
9.564068077E0,-4.846769869E-1,2.234402895E0,9.584794044E0
9.569119327E0,-4.966545105E-1,2.243984938E0,9.575211525E0
9.574181046E0,-4.535354972E-1,2.282313108E0,9.563234329E0
9.579232348E0,-4.176029861E-1,2.320641041E0,9.551257133E0
9.584283598E0,-4.199984968E-1,2.327827454E0,9.620726585E0
9.589334848E0,-4.128119946E-1,2.346991539E0,9.613539696E0
9.594386098E0,-3.792749941E-1,2.392505884E0,9.544070244E0
9.599437348E0,-2.906414866E-1,2.423647404E0,9.491369247E0
9.604485993E0,-2.954325080E-1,2.402087927E0,9.460227966E0
9.609537296E0,-3.241784871E-1,2.380528450E0,9.376385689E0
9.614588493E0,-3.672975004E-1,2.416460991E0,9.333266258E0
9.619639796E0,-4.128119946E-1,2.397296906E0,9.306916237E0
9.624691046E0,-4.703040123E-1,2.392505884E0,9.261401176E0
9.629742296E0,-5.086320043E-1,2.370946407E0,9.242237091E0
9.634784743E0,-5.038409829E-1,2.354177952E0,9.220678329E0
9.639835993E0,-5.038409829E-1,2.337409496E0,9.230259895E0
9.644887243E0,-4.583264887E-1,2.318245411E0,9.213491440E0
9.649938546E0,-4.990499914E-1,2.272731066E0,9.177558899E0
9.654989796E0,-5.325869918E-1,2.284708500E0,9.199118614E0
9.660041046E0,-5.517510176E-1,2.275126457E0,9.275774956E0
9.665100368E0,-5.804970264E-1,2.251171589E0,9.376385689E0
9.670151671E0,-5.277959704E-1,2.277522087E0,9.414713860E0
9.675202921E0,-4.942589998E-1,2.260753393E0,9.450646400E0
9.680254171E0,-5.038409829E-1,2.236798525E0,9.503347397E0
9.685305421E0,-5.421689749E-1,2.198470592E0,9.570421219E0
9.690356723E0,-5.685194731E-1,2.169724464E0,9.690196037E0
9.695405733E0,-6.451755166E-1,2.179306507E0,9.750083923E0
9.700456983E0,-6.906899810E-1,2.155351400E0,9.740501404E0
9.705508233E0,-7.146450281E-1,2.121814489E0,9.726128578E0
9.710559483E0,-7.242270112E-1,2.107441425E0,9.769247055E0
9.715610733E0,-7.889055014E-1,2.121814489E0,9.797993660E0
9.720661983E0,-7.984874845E-1,2.121814489E0,9.781225204E0
9.725698702E0,-8.248379827E-1,2.105046034E0,9.774038315E0
9.730749952E0,-8.463975191E-1,2.073904514E0,9.714151382E0
9.735801202E0,-8.200470209E-1,2.093068600E0,9.661450386E0
9.740852504E0,-8.104649782E-1,2.117023468E0,9.625517845E0
9.745903754E0,-7.625550032E-1,2.126605511E0,9.615935326E0
9.750955004E0,-7.673460245E-1,2.133791924E0,9.577607155E0
9.756019639E0,-7.338089943E-1,2.162538052E0,9.572816849E0
9.761070889E0,-7.146450281E-1,2.196074963E0,9.553652763E0
9.766122139E0,-6.811079979E-1,2.232007504E0,9.558443069E0
9.771173389E0,-6.715260148E-1,2.263149023E0,9.541674614E0
9.776224691E0,-6.308025122E-1,2.275126457E0,9.488973618E0
9.781275941E0,-6.020565033E-1,2.301476955E0,9.465019226E0
9.786316931E0,-6.164295077E-1,2.294290543E0,9.467414856E0
9.791368181E0,-6.188250184E-1,2.299081564E0,9.441063881E0
9.796419431E0,-5.828924775E-1,2.311058998E0,9.441063881E0
9.801470733E0,-6.116384864E-1,2.315850019E0,9.443459511E0
9.806521983E0,-5.733104944E-1,2.272731066E0,9.500951767E0
9.811573233E0,-5.828924775E-1,2.243984938E0,9.589585304E0
9.816630108E0,-5.685194731E-1,2.227216482E0,9.635099411E0
9.821681358E0,-5.613330007E-1,2.232007504E0,9.738105774E0
9.826732608E0,-5.733104944E-1,2.232007504E0,9.867463112E0
9.831783858E0,-5.757060051E-1,2.203261614E0,9.889022827E0
9.836835108E0,-5.445644855E-1,2.220030069E0,9.903395653E0
9.841886410E0,-5.613330007E-1,2.215239048E0,9.886627197E0
9.846932139E0,-5.541465282E-1,2.200865984E0,9.805179596E0
9.851983389E0,-5.781015158E-1,2.224821091E0,9.752478600E0
9.857034639E0,-6.116384864E-1,2.224821091E0,9.704568863E0
9.862085889E0,-6.188250184E-1,2.248775959E0,9.596771240E0
9.867137139E0,-6.140339971E-1,2.253566980E0,9.500951767E0
9.872188389E0,-5.828924775E-1,2.236798525E0,9.465019226E0
9.877238025E0,-5.709149837E-1,2.258358002E0,9.429086685E0
9.882289275E0,-5.469599962E-1,2.246380568E0,9.438668251E0
9.887340525E0,-5.469599962E-1,2.253566980E0,9.450646400E0
9.892391775E0,-5.206094980E-1,2.267940044E0,9.548861504E0
9.897443025E0,-4.798859954E-1,2.265544415E0,9.606353760E0
9.902494275E0,-4.559310079E-1,2.294290543E0,9.613539696E0
9.907542973E0,-4.535354972E-1,2.301476955E0,9.663845062E0
9.912594223E0,-4.056254923E-1,2.270335436E0,9.678218842E0
9.917645473E0,-4.032300115E-1,2.267940044E0,9.680614471E0
9.922696775E0,-4.247894883E-1,2.258358002E0,9.627913475E0
9.927748025E0,-4.367670119E-1,2.265544415E0,9.594375610E0
9.932799275E0,-4.750950038E-1,2.241589546E0,9.534488678E0
9.937854327E0,-5.206094980E-1,2.176911116E0,9.450646400E0
9.942905577E0,-5.876834989E-1,2.186492920E0,9.400340080E0
9.947956827E0,-5.924745202E-1,2.157747030E0,9.350034714E0
9.953008129E0,-5.996609926E-1,2.162538052E0,9.314102173E0
9.958059379E0,-5.565419793E-1,2.184097528E0,9.263796806E0
9.963110629E0,-5.757060051E-1,2.150560617E0,9.306916237E0
9.968209691E0,-5.541465282E-1,2.193679571E0,9.383571625E0
9.973260941E0,-5.062364936E-1,2.220030069E0,9.414713860E0
9.978312243E0,-4.750950038E-1,2.270335436E0,9.429086685E0
9.983363493E0,-5.110275149E-1,2.291894913E0,9.460227966E0
9.988414743E0,-4.942589998E-1,2.284708500E0,9.520115852E0
9.993465941E0,-4.942589998E-1,2.323036432E0,9.520115852E0
9.998477504E0,-5.254005194E-1,2.346991539E0,9.484183311E0
1.000352875E1,-4.870724976E-1,2.339804888E0,9.436272621E0
1.000858000E1,-5.110275149E-1,2.358968973E0,9.347639084E0
1.001363125E1,-5.301914811E-1,2.339804888E0,9.256610870E0
1.001868250E1,-5.062364936E-1,2.303872585E0,9.151208878E0
1.002373381E1,-5.014454722E-1,2.323036432E0,9.069761276E0
1.002877886E1,-5.469599962E-1,2.299081564E0,9.079343796E0
1.003383011E1,-5.230050087E-1,2.265544415E0,9.103298187E0
1.003888136E1,-5.828924775E-1,2.270335436E0,9.144021988E0
1.004393261E1,-6.355934739E-1,2.308663607E0,9.230259895E0
1.004898386E1,-6.739215255E-1,2.272731066E0,9.400340080E0
1.005403516E1,-6.667349935E-1,2.272731066E0,9.551257133E0
1.005908193E1,-6.284070015E-1,2.282313108E0,9.642286301E0
1.006413308E1,-5.948699713E-1,2.284708500E0,9.730919838E0
1.006918417E1,-5.804970264E-1,2.289499521E0,9.764456749E0
1.007423532E1,-5.876834989E-1,2.284708500E0,9.757269859E0
1.007928646E1,-5.852879882E-1,2.299081564E0,9.716546059E0
1.008433756E1,-5.972654819E-1,2.318245411E0,9.656659126E0
1.008939073E1,-6.020565033E-1,2.303872585E0,9.606353760E0
1.009444183E1,-5.781015158E-1,2.308663607E0,9.532093048E0
1.009949297E1,-5.158184767E-1,2.299081564E0,9.479392052E0
1.010454412E1,-4.846769869E-1,2.272731066E0,9.462623596E0
1.010959521E1,-4.535354972E-1,2.318245411E0,9.469809532E0
1.011464636E1,-4.655129910E-1,2.313454390E0,9.436272621E0
1.011971303E1,-4.726994932E-1,2.303872585E0,9.503347397E0
1.012476417E1,-4.822815061E-1,2.311058998E0,9.613539696E0
1.012981526E1,-4.822815061E-1,2.306267977E0,9.702173233E0
1.013486641E1,-4.990499914E-1,2.311058998E0,9.728524208E0
1.013991750E1,-5.373780131E-1,2.308663607E0,9.742897034E0
1.014496865E1,-5.014454722E-1,2.320641041E0,9.690196037E0
1.015002823E1,-4.655129910E-1,2.354177952E0,9.591980934E0
1.015507933E1,-4.750950038E-1,2.358968973E0,9.493764877E0
1.016013047E1,-4.894680083E-1,2.344595909E0,9.376385689E0
1.016518157E1,-4.679085016E-1,2.337409496E0,9.306916237E0
1.017023271E1,-5.110275149E-1,2.303872585E0,9.273379326E0
1.017528381E1,-4.870724976E-1,2.306267977E0,9.230259895E0
1.018031026E1,-4.798859954E-1,2.258358002E0,9.225468636E0
1.018536141E1,-4.463489950E-1,2.267940044E0,9.247028351E0
1.019041250E1,-4.798859954E-1,2.270335436E0,9.285356522E0
1.019546365E1,-4.583264887E-1,2.270335436E0,9.352430344E0
1.020051474E1,-4.176029861E-1,2.289499521E0,9.436272621E0
1.020556589E1,-4.319759905E-1,2.253566980E0,9.500951767E0
1.021062318E1,-4.415580034E-1,2.267940044E0,9.601562500E0
1.021567433E1,-4.199984968E-1,2.267940044E0,9.692591667E0
1.022072542E1,-4.559310079E-1,2.232007504E0,9.697382927E0
1.022577657E1,-4.439535141E-1,2.200865984E0,9.690196037E0
1.023082766E1,-4.247894883E-1,2.210448027E0,9.606353760E0
1.023587881E1,-4.487445056E-1,2.222425461E0,9.575211525E0
1.024093178E1,-4.726994932E-1,2.193679571E0,9.522510529E0
1.024598292E1,-4.822815061E-1,2.208052397E0,9.385967255E0
1.025103401E1,-4.942589998E-1,2.224821091E0,9.287752151E0
1.025608516E1,-4.511399865E-1,2.246380568E0,9.199118614E0
1.026113625E1,-4.008345008E-1,2.234402895E0,9.151208878E0
1.026618740E1,-3.577154875E-1,2.224821091E0,9.122462273E0
1.027122907E1,-3.720884919E-1,2.234402895E0,9.211095810E0
1.027628016E1,-3.744840026E-1,2.212843418E0,9.340453148E0
1.028133131E1,-3.625065088E-1,2.222425461E0,9.429086685E0
1.028638240E1,-3.601109982E-1,2.217634439E0,9.510533333E0
1.029143355E1,-3.649019897E-1,2.212843418E0,9.625517845E0
1.029648469E1,-3.696930110E-1,2.239193916E0,9.663845062E0
1.030154198E1,-3.936479986E-1,2.222425461E0,9.764456749E0
1.030659313E1,-4.439535141E-1,2.184097528E0,9.778829575E0
1.031164422E1,-4.726994932E-1,2.184097528E0,9.745292664E0
1.031669532E1,-4.750950038E-1,2.160142422E0,9.663845062E0
1.032174646E1,-4.822815061E-1,2.133791924E0,9.596771240E0
1.032679756E1,-4.822815061E-1,2.124209881E0,9.505742073E0
1.033183928E1,-4.846769869E-1,2.109837055E0,9.400340080E0
1.033689037E1,-4.439535141E-1,2.100255013E0,9.294938087E0
1.034194151E1,-4.319759905E-1,2.076299906E0,9.249423981E0
1.034699261E1,-4.343715012E-1,2.083486557E0,9.237446785E0
1.035204375E1,-3.912524879E-1,2.117023468E0,9.263796806E0
1.035709485E1,-3.912524879E-1,2.114628077E0,9.333266258E0
1.036215985E1,-3.768795133E-1,2.138582945E0,9.426691055E0
1.036721099E1,-3.744840026E-1,2.172120094E0,9.493764877E0
1.037226209E1,-3.936479986E-1,2.162538052E0,9.496160507E0
1.037731323E1,-3.792749941E-1,2.232007504E0,9.522510529E0
1.038236433E1,-3.912524879E-1,2.241589546E0,9.465019226E0
1.038741547E1,-4.128119946E-1,2.227216482E0,9.441063881E0
1.039246131E1,-4.128119946E-1,2.255962610E0,9.414713860E0
1.039751240E1,-4.080210030E-1,2.265544415E0,9.390758514E0
1.040256355E1,-4.032300115E-1,2.282313108E0,9.321289062E0
1.040761464E1,-3.433425128E-1,2.323036432E0,9.280565262E0
1.041266579E1,-3.385514915E-1,2.366155386E0,9.282960892E0
1.041771688E1,-2.978279889E-1,2.390110493E0,9.270983696E0
1.042276573E1,-2.954325080E-1,2.392505884E0,9.268588066E0
1.042781683E1,-2.642909884E-1,2.430834055E0,9.275774956E0
1.043286797E1,-2.690820098E-1,2.435625076E0,9.306916237E0
1.043791907E1,-3.074100018E-1,2.426043034E0,9.345244408E0
1.044297021E1,-3.457379937E-1,2.418856382E0,9.421899796E0
1.044802131E1,-3.720884919E-1,2.445207119E0,9.541674614E0
1.045307178E1,-4.271849990E-1,2.433229446E0,9.615935326E0
1.045812287E1,-4.199984968E-1,2.416460991E0,9.575211525E0
1.046317401E1,-3.457379937E-1,2.414065599E0,9.532093048E0
1.046822511E1,-3.385514915E-1,2.406878948E0,9.481787682E0
1.047327625E1,-3.529244959E-1,2.440416098E0,9.481787682E0
1.047832735E1,-3.409470022E-1,2.447602510E0,9.496160507E0
1.048337881E1,-3.768795133E-1,2.430834055E0,9.486578941E0
1.048842990E1,-3.696930110E-1,2.366155386E0,9.498556137E0
