"Time (s)","Acceleration x (m/s^2)","Acceleration y (m/s^2)","Acceleration z (m/s^2)"
3.370246300E-2,-4.199984968E-1,2.708712101E0,9.105693817E0
3.869970300E-2,-3.337605000E-1,2.677570581E0,9.373990059E0
4.369694200E-2,-3.529244959E-1,2.663197517E0,9.512928963E0
4.878985900E-2,-3.625065088E-1,2.670383930E0,9.627913475E0
5.378709900E-2,-2.523134947E-1,2.612891912E0,9.788411140E0
5.887079700E-2,1.094070002E-1,2.569772959E0,1.013096809E1
6.386803600E-2,4.233299941E-2,2.416460991E0,1.009024429E1
6.901642200E-2,-4.679085016E-1,2.323036432E0,9.817157745E0
7.407428600E-2,-7.553684711E-1,2.243984938E0,9.675823212E0
7.907637000E-2,-9.014940262E-1,2.215239048E0,9.675823212E0
8.411767200E-2,-9.134715199E-1,2.131396532E0,9.730919838E0
8.918079700E-2,-8.583750129E-1,1.985270977E0,9.915372849E0
9.422574500E-2,-7.697414756E-1,1.858309507E0,1.021001911E1
9.928933800E-2,-7.314134836E-1,1.640318990E0,1.084243107E1
1.043285570E-1,-8.152559996E-1,1.587617993E0,1.111551857E1
1.093783490E-1,-9.374265075E-1,1.609177470E0,1.108916759E1
1.144486610E-1,-1.011687040E0,1.585222483E0,1.103886223E1
1.194973070E-1,-1.097924948E0,1.606781960E0,1.093346024E1
1.245416300E-1,-1.184162974E0,1.628341556E0,1.074182034E1
1.295849630E-1,-1.200931549E0,1.654692054E0,1.050466633E1
1.346451200E-1,-1.203326941E0,1.690624475E0,1.029386234E1
1.396856400E-1,-1.198536038E0,1.731348038E0,1.008305836E1
1.447382970E-1,-1.193745017E0,1.779258013E0,9.893813133E0
1.497970990E-1,-1.164999008E0,1.848727465E0,9.730919838E0
1.548483490E-1,-1.138648510E0,1.922988057E0,9.584794044E0
1.599035050E-1,-1.021268964E0,1.990061998E0,9.405131340E0
1.649441300E-1,-9.038894773E-1,2.073904514E0,9.244632721E0
1.700008490E-1,-7.817190289E-1,2.169724464E0,9.093716621E0
1.750534010E-1,-6.643394828E-1,2.253566980E0,8.935613632E0
1.800961090E-1,-5.804970264E-1,2.313454390E0,8.825420380E0
1.851489740E-1,-4.559310079E-1,2.418856382E0,8.777510643E0
1.902089740E-1,-3.601109982E-1,2.517071962E0,8.705645561E0
1.952567860E-1,-2.834550142E-1,2.572168589E0,8.655340195E0
2.003124110E-1,-2.930369973E-1,2.624869585E0,8.693668365E0
2.053589740E-1,-3.361560106E-1,2.627264977E0,8.748764038E0
2.104088700E-1,-3.672975004E-1,2.598519087E0,8.794279099E0
2.154620990E-1,-4.199984968E-1,2.560190916E0,8.832607269E0
2.205123590E-1,-5.182139874E-1,2.521862984E0,8.935613632E0
2.255663700E-1,-6.116384864E-1,2.473953009E0,9.091320992E0
2.306200150E-1,-6.858990192E-1,2.416460991E0,9.242237091E0
2.356701720E-1,-7.242270112E-1,2.370946407E0,9.385967255E0
2.407153280E-1,-7.913010120E-1,2.284708500E0,9.500951767E0
2.457422550E-1,-8.655614853E-1,2.203261614E0,9.548861504E0
2.508373070E-1,-8.847255111E-1,2.124209881E0,9.584794044E0
2.558445990E-1,-9.661725163E-1,2.047554016E0,9.651867867E0
2.609160050E-1,-1.071574450E0,1.992457509E0,9.752478600E0
2.659515260E-1,-1.143439531E0,1.946943045E0,9.877044678E0
2.710242860E-1,-1.148230553E0,1.920592546E0,1.001598358E1
2.760778800E-1,-1.164999008E0,1.882264495E0,1.009263992E1
2.811237650E-1,-1.153021455E0,1.879868984E0,1.021960163E1
2.861682450E-1,-1.076365471E0,1.843936443E0,1.034416771E1
2.912181400E-1,-9.422175288E-1,1.843936443E0,1.043759155E1
2.962872550E-1,-8.128604889E-1,1.796026468E0,1.053580761E1
3.013351720E-1,-6.787124872E-1,1.764884949E0,1.060288143E1
3.063742340E-1,-5.804970264E-1,1.724161506E0,1.067714214E1
3.114234010E-1,-5.134230256E-1,1.683437943E0,1.073702908E1
3.164947550E-1,-4.870724976E-1,1.690624475E0,1.077056694E1
3.215446510E-1,-5.182139874E-1,1.681042552E0,1.082087231E1
3.265710570E-1,-5.589374900E-1,1.700206518E0,1.082326794E1
3.316344420E-1,-5.709149837E-1,1.709788442E0,1.079931259E1
3.366895990E-1,-6.331980228E-1,1.740929961E0,1.075858879E1
3.417504840E-1,-6.787124872E-1,1.693019986E0,1.065558243E1
3.467990780E-1,-6.930854917E-1,1.693019986E0,1.053101635E1
3.518528800E-1,-7.338089943E-1,1.719370484E0,1.030583954E1
3.568695470E-1,-7.553684711E-1,1.712183952E0,1.010940838E1
3.619525150E-1,-7.625550032E-1,1.697811007E0,9.874649048E0
3.669666300E-1,-8.128604889E-1,1.748116493E0,9.642286301E0
3.720426200E-1,-7.769280076E-1,1.776862502E0,9.472205162E0
3.770963700E-1,-8.056740165E-1,1.831959009E0,9.306916237E0
3.821547030E-1,-7.913010120E-1,1.903823972E0,9.100902557E0
3.872051720E-1,-7.625550032E-1,1.918197036E0,8.916449547E0
3.922684530E-1,-7.362045050E-1,1.990061998E0,8.760742188E0
3.973030880E-1,-7.553684711E-1,2.059531450E0,8.602639198E0
4.023495990E-1,-7.242270112E-1,2.117023468E0,8.449327469E0
4.074018380E-1,-7.122495174E-1,2.186492920E0,8.387043953E0
4.124626720E-1,-7.122495174E-1,2.220030069E0,8.336738586E0
4.175231920E-1,-7.074584961E-1,2.277522087E0,8.367879868E0
4.225731920E-1,-7.050629854E-1,2.303872585E0,8.387043953E0
4.276220990E-1,-7.673460245E-1,2.342200518E0,8.406208038E0
4.326739740E-1,-7.745324969E-1,2.373342037E0,8.456513405E0
4.377270990E-1,-7.817190289E-1,2.346991539E0,8.525982857E0
4.427765260E-1,-7.960919738E-1,2.349386930E0,8.583475113E0
4.478241300E-1,-8.272334933E-1,2.339804888E0,8.633780479E0
4.528435570E-1,-8.511884809E-1,2.303872585E0,8.674504280E0
4.578915260E-1,-9.158669710E-1,2.251171589E0,8.712832451E0
4.629722030E-1,-1.028455496E0,2.172120094E0,8.693668365E0
4.680301200E-1,-1.160207987E0,2.097859383E0,8.679294586E0
4.730824110E-1,-1.289564967E0,2.081090927E0,8.681690216E0
4.781309530E-1,-1.349452496E0,2.059531450E0,8.681690216E0
4.831565780E-1,-1.414131045E0,2.057136059E0,8.681690216E0
4.882068380E-1,-1.423712969E0,2.109837055E0,8.715227127E0
4.932802240E-1,-1.378198504E0,2.090672970E0,8.782301903E0
4.983092340E-1,-1.320706487E0,2.045158386E0,8.813443184E0
5.033657970E-1,-1.236863971E0,2.045158386E0,8.894889832E0
5.084395470E-1,-1.164999008E0,2.078695536E0,8.981127739E0
5.134818900E-1,-1.016477942E0,2.150560617E0,9.088925362E0
5.185269420E-1,-8.511884809E-1,2.203261614E0,9.179954529E0
5.235813170E-1,-6.930854917E-1,2.251171589E0,9.251819611E0
5.286299110E-1,-5.852879882E-1,2.306267977E0,9.304520607E0
5.336919420E-1,-5.182139874E-1,2.323036432E0,9.362012863E0
5.387389220E-1,-4.679085016E-1,2.342200518E0,9.376385689E0
5.437949110E-1,-4.846769869E-1,2.313454390E0,9.381176949E0
5.488489740E-1,-5.325869918E-1,2.335014105E0,9.381176949E0
5.538915780E-1,-6.164295077E-1,2.301476955E0,9.371594429E0
5.589514220E-1,-7.050629854E-1,2.263149023E0,9.397945404E0
5.639943900E-1,-7.745324969E-1,2.222425461E0,9.409922600E0
5.690566300E-1,-7.936965227E-1,2.208052397E0,9.426691055E0
5.741089740E-1,-8.535839915E-1,2.164933443E0,9.371594429E0
5.791531920E-1,-8.990985155E-1,2.140978575E0,9.347639084E0
5.842065780E-1,-9.925230145E-1,2.078695536E0,9.347639084E0
5.892555880E-1,-1.066783547E0,2.021203518E0,9.397945404E0
5.943060050E-1,-1.157812476E0,1.973293543E0,9.383571625E0
5.993524110E-1,-1.229677558E0,1.853518486E0,9.321289062E0
6.043765780E-1,-1.308729053E0,1.772071481E0,9.347639084E0
6.094471510E-1,-1.366220951E0,1.724161506E0,9.397945404E0
6.145045470E-1,-1.366220951E0,1.659482956E0,9.421899796E0
6.195612650E-1,-1.368616462E0,1.625946045E0,9.493764877E0
6.246046510E-1,-1.347056985E0,1.647505522E0,9.556048393E0
6.296485570E-1,-1.320706487E0,1.630736947E0,9.627913475E0
6.347057970E-1,-1.258423448E0,1.647505522E0,9.718941689E0
6.397689220E-1,-1.172185540E0,1.681042552E0,9.733315468E0
6.448043900E-1,-1.112298012E0,1.707393050E0,9.778829575E0
6.498625670E-1,-1.083552003E0,1.750512004E0,9.807575226E0
6.548925670E-1,-1.035642028E0,1.791235447E0,9.788411140E0
6.600080880E-1,-1.009291530E0,1.822376966E0,9.764456749E0
6.650359530E-1,-9.182624817E-1,1.882264495E0,9.745292664E0
6.700712650E-1,-8.392109871E-1,1.973293543E0,9.714151382E0
6.751192860E-1,-7.529730201E-1,2.016412497E0,9.711755753E0
6.801743900E-1,-6.763169765E-1,2.069113493E0,9.694987297E0
6.852171510E-1,-5.972654819E-1,2.203261614E0,9.766852379E0
6.902782450E-1,-5.493555069E-1,2.248775959E0,9.757269859E0
6.953227760E-1,-5.541465282E-1,2.239193916E0,9.786016464E0
7.003805880E-1,-5.996609926E-1,2.203261614E0,9.855485916E0
7.054284530E-1,-6.308025122E-1,2.179306507E0,9.982446671E0
7.104815260E-1,-6.499664783E-1,2.176911116E0,1.003754330E1
7.155253280E-1,-6.739215255E-1,2.140978575E0,1.013815403E1
7.205767340E-1,-6.451755166E-1,2.102650404E0,1.025553417E1
7.256042860E-1,-5.948699713E-1,2.126605511E0,1.031302643E1
7.306895990E-1,-5.301914811E-1,2.093068600E0,1.043759155E1
7.357375670E-1,-4.607219994E-1,2.105046034E0,1.049987507E1
7.408035570E-1,-3.672975004E-1,2.124209881E0,1.048550224E1
7.458454840E-1,-3.026190102E-1,2.136187553E0,1.051185226E1
7.508964220E-1,-2.858504951E-1,2.167329073E0,1.050706196E1
7.559477240E-1,-3.026190102E-1,2.138582945E0,1.048071098E1
7.609924110E-1,-3.361560106E-1,2.095463991E0,1.043759155E1
7.660396510E-1,-3.960435092E-1,2.102650404E0,1.043280125E1
7.710914740E-1,-4.319759905E-1,2.052345037E0,1.041842842E1
7.761405880E-1,-4.032300115E-1,2.011621475E0,1.039447308E1
7.812001720E-1,-4.128119946E-1,1.978084445E0,1.039207745E1
7.862478280E-1,-3.553200066E-1,2.014017105E0,1.042321873E1
7.913312130E-1,-2.714774907E-1,2.037971973E0,1.045915127E1
7.963656400E-1,-2.115900069E-1,2.085881948E0,1.046873379E1
8.014014220E-1,-2.451270074E-1,2.109837055E0,1.045436096E1
8.064392340E-1,-2.451270074E-1,2.162538052E0,1.041363716E1
8.114911090E-1,-2.690820098E-1,2.215239048E0,1.036572742E1
8.165387130E-1,-3.122009933E-1,2.210448027E0,1.029625797E1
8.215893900E-1,-2.930369973E-1,2.263149023E0,1.023876572E1
8.266405360E-1,-2.738730013E-1,2.260753393E0,1.016929626E1
8.317041820E-1,-1.948215067E-1,2.224821091E0,1.011419964E1
8.367415780E-1,-1.229564995E-1,2.234402895E0,1.005191612E1
8.418154840E-1,-7.744199783E-2,2.222425461E0,9.960887909E0
8.468550670E-1,8.795999922E-3,2.251171589E0,9.936932564E0
8.519037130E-1,1.022204980E-1,2.267940044E0,9.896208763E0
8.569555880E-1,2.028315067E-1,2.296685934E0,9.857880592E0
8.620147550E-1,2.675099969E-1,2.339804888E0,9.819553375E0
8.671090780E-1,2.866739929E-1,2.311058998E0,9.716546059E0
8.721242340E-1,2.794874907E-1,2.356573582E0,9.608749390E0
8.771720990E-1,2.219955027E-1,2.421252012E0,9.510533333E0
8.822192340E-1,1.501304954E-1,2.433229446E0,9.359617233E0
8.872725670E-1,6.389249861E-2,2.493117094E0,9.304520607E0
8.923287650E-1,1.598249935E-2,2.521862984E0,9.263796806E0
8.973789220E-1,-7.983750105E-2,2.531445026E0,9.211095810E0
9.024254320E-1,-1.181655005E-1,2.512280941E0,9.172767639E0
9.074806400E-1,-1.037925035E-1,2.507489920E0,9.165581703E0
9.125351200E-1,-1.013970003E-1,2.502698898E0,9.191931725E0
9.175674110E-1,-6.067350134E-2,2.466766596E0,9.249423981E0
9.226338170E-1,1.119150035E-2,2.442811489E0,9.314102173E0
9.276777760E-1,2.077350020E-2,2.447602510E0,9.362012863E0
9.327416820E-1,8.795999922E-3,2.512280941E0,9.433877945E0
9.377876200E-1,-3.432299942E-2,2.512280941E0,9.467414856E0
9.428382450E-1,-1.085835025E-1,2.493117094E0,9.534488678E0
9.478940780E-1,-1.708665043E-1,2.466766596E0,9.575211525E0
9.529418380E-1,-2.163809985E-1,2.449997902E0,9.580002785E0
9.579993380E-1,-2.451270074E-1,2.447602510E0,9.591980934E0
9.630236090E-1,-2.139855027E-1,2.402087927E0,9.625517845E0
9.680951720E-1,-2.067990005E-1,2.392505884E0,9.656659126E0
9.731155880E-1,-1.564934999E-1,2.402087927E0,9.644681931E0
9.781854840E-1,-1.325384974E-1,2.378133059E0,9.606353760E0
9.832353800E-1,-1.085835025E-1,2.373342037E0,9.536884308E0
9.882787650E-1,-1.205610037E-1,2.366155386E0,9.515324593E0
9.934031920E-1,-1.517024934E-1,2.378133059E0,9.484183311E0
9.983977760E-1,-1.540980041E-1,2.414065599E0,9.455436707E0
1.003448349E0,-1.564934999E-1,2.476348400E0,9.412318230E0
1.008494703E0,-1.660754979E-1,2.521862984E0,9.287752151E0
1.013545276E0,-1.349339932E-1,2.553004503E0,9.230259895E0
1.018594911E0,-7.265099883E-2,2.555399895E0,9.151208878E0
1.023645067E0,-3.192749992E-2,2.627264977E0,9.043411255E0
1.028697932E0,6.149699911E-2,2.696734428E0,9.017060280E0
1.033755901E0,2.076224983E-1,2.742249012E0,8.961963654E0
1.038813401E0,3.345839977E-1,2.749435425E0,8.921240807E0
1.043848297E0,3.777030110E-1,2.766204119E0,8.904472351E0
1.048914338E0,3.729119897E-1,2.790158987E0,8.858957291E0
1.053965849E0,3.729119897E-1,2.780576944E0,8.902076721E0
1.059004026E0,3.082334995E-1,2.732666969E0,8.885308266E0
1.064061161E0,2.890695035E-1,2.713502884E0,8.940404892E0
1.069112307E0,2.315775007E-1,2.711107492E0,8.957173347E0
1.074164442E0,1.836674958E-1,2.677570581E0,9.064970970E0
1.079216630E0,1.261754930E-1,2.644033432E0,9.268588066E0
1.084269182E0,8.545199782E-2,2.596123457E0,9.381176949E0
1.089321734E0,4.472849891E-2,2.572168589E0,9.476996422E0
1.094374234E0,3.275100142E-2,2.529049397E0,9.544070244E0
1.099426786E0,3.035550006E-2,2.483535051E0,9.556048393E0
1.104479338E0,2.077350020E-2,2.440416098E0,9.515324593E0
1.109527203E0,-2.953200042E-2,2.363759995E0,9.505742073E0
1.114579755E0,-1.325384974E-1,2.335014105E0,9.503347397E0
1.119632307E0,-1.732620001E-1,2.308663607E0,9.402735710E0
1.124684807E0,-2.594999969E-1,2.332618475E0,9.321289062E0
1.129737359E0,-2.906414866E-1,2.404483557E0,9.254215240E0
1.134789911E0,-2.499179989E-1,2.473953009E0,9.129649162E0
1.139835745E0,-2.163809985E-1,2.545818090E0,8.911658287E0
1.144888297E0,-1.301430017E-1,2.648824453E0,8.789487839E0
1.149940797E0,1.609500032E-3,2.723084927E0,8.648153305E0
1.154993349E0,1.022204980E-1,2.804532051E0,8.528378487E0
1.160045901E0,1.046160012E-1,2.823695898E0,8.418185234E0
1.165098453E0,8.784750104E-2,2.835673571E0,8.406208038E0
1.170134859E0,3.754200041E-2,2.826091528E0,8.387043953E0
1.175187411E0,-3.671849892E-2,2.826091528E0,8.399021149E0
1.180239963E0,-8.462850004E-2,2.773390532E0,8.427767754E0
1.185292515E0,-1.756574959E-1,2.763808489E0,8.540355682E0
1.190345015E0,-2.139855027E-1,2.711107492E0,8.631384850E0
1.195397567E0,-3.193874955E-1,2.615287542E0,8.791883469E0
1.200447411E0,-4.008345008E-1,2.574563980E0,9.007478714E0
1.205499963E0,-4.199984968E-1,2.488326073E0,9.189536095E0
1.210552515E0,-4.247894883E-1,2.447602510E0,9.376385689E0
1.215605067E0,-4.439535141E-1,2.363759995E0,9.467414856E0
1.220657567E0,-4.415580034E-1,2.299081564E0,9.635099411E0
1.225710172E0,-4.391624928E-1,2.284708500E0,9.793202400E0
1.230762151E0,-4.056254923E-1,2.227216482E0,9.896208763E0
1.235814703E0,-3.649019897E-1,2.181701899E0,9.989633560E0
1.240867255E0,-3.768795133E-1,2.164933443E0,1.005431175E1
1.245919807E0,-4.008345008E-1,2.174515486E0,1.012857246E1
1.250972307E0,-3.720884919E-1,2.179306507E0,1.019085503E1
1.256024859E0,-3.074100018E-1,2.229612112E0,1.022439289E1
1.261065172E0,-2.379405051E-1,2.205657005E0,1.026272011E1
1.266117724E0,-1.493069977E-1,2.227216482E0,1.020762444E1
1.271170276E0,-1.061879992E-1,2.260753393E0,1.016929626E1
1.276222828E0,-1.061879992E-1,2.279917479E0,1.011180401E1
1.281275328E0,-1.109789982E-1,2.327827454E0,1.000879765E1
1.286327880E0,-1.085835025E-1,2.358968973E0,9.927350044E0
1.291373922E0,-1.229564995E-1,2.337409496E0,9.795598030E0
1.296426474E0,-1.085835025E-1,2.332618475E0,9.685404778E0
1.301479026E0,-1.349339932E-1,2.358968973E0,9.565629959E0
1.306531578E0,-1.421204954E-1,2.335014105E0,9.508137703E0
1.311584078E0,-1.325384974E-1,2.303872585E0,9.426691055E0
1.316636630E0,-1.876350045E-1,2.337409496E0,9.402735710E0
1.321683453E0,-2.355449945E-1,2.306267977E0,9.352430344E0
1.326736005E0,-2.690820098E-1,2.311058998E0,9.338057518E0
1.331788609E0,-3.361560106E-1,2.313454390E0,9.378781319E0
1.336841109E0,-3.122009933E-1,2.327827454E0,9.484183311E0
1.341893609E0,-2.906414866E-1,2.373342037E0,9.553652763E0
1.346946161E0,-2.690820098E-1,2.375737429E0,9.647076607E0
1.351978817E0,-2.044035047E-1,2.380528450E0,9.699777603E0
1.357031370E0,-1.493069977E-1,2.399692535E0,9.733315468E0
1.362083922E0,-1.229564995E-1,2.378133059E0,9.769247055E0
1.367136474E0,-1.301430017E-1,2.356573582E0,9.762061119E0
1.372189026E0,-1.588889956E-1,2.335014105E0,9.800389290E0
1.377241526E0,-1.948215067E-1,2.344595909E0,9.898604393E0
1.382287984E0,-2.475225031E-1,2.289499521E0,9.929745674E0
1.387340536E0,-3.002234995E-1,2.265544415E0,9.987237930E0
1.392393140E0,-3.529244959E-1,2.232007504E0,1.002556610E1
1.397445640E0,-4.152075052E-1,2.155351400E0,1.003754330E1
1.402498140E0,-4.391624928E-1,2.138582945E0,9.992029190E0
1.407550745E0,-4.367670119E-1,2.097859383E0,9.980051041E0
1.412595380E0,-3.936479986E-1,2.083486557E0,9.944119453E0
1.417647932E0,-3.720884919E-1,2.076299906E0,9.874649048E0
1.422700484E0,-4.152075052E-1,2.049949408E0,9.838717461E0
1.427753036E0,-4.319759905E-1,2.023598909E0,9.802784920E0
1.432805536E0,-4.032300115E-1,2.002039433E0,9.812366486E0
1.437858088E0,-4.056254923E-1,2.014017105E0,9.771642685E0
1.442893765E0,-4.128119946E-1,2.011621475E0,9.721337318E0
1.447946317E0,-3.960435092E-1,2.035576582E0,9.685404778E0
1.452998870E0,-3.625065088E-1,2.009226084E0,9.680614471E0
1.458051422E0,-3.505289853E-1,1.980479956E0,9.711755753E0
1.463103922E0,-3.529244959E-1,1.973293543E0,9.694987297E0
1.468156526E0,-3.433425128E-1,1.925383449E0,9.723732948E0
1.473204130E0,-3.768795133E-1,1.908614993E0,9.706964493E0
1.478256682E0,-4.463489950E-1,1.887055516E0,9.699777603E0
1.483309234E0,-4.942589998E-1,1.855913997E0,9.738105774E0
1.488361734E0,-4.942589998E-1,1.841541052E0,9.738105774E0
1.493414286E0,-4.798859954E-1,1.819981456E0,9.704568863E0
1.498466838E0,-4.703040123E-1,1.839145541E0,9.697382927E0
1.503523349E0,-4.319759905E-1,1.815190554E0,9.651867867E0
1.508575901E0,-4.223940074E-1,1.805608511E0,9.647076607E0
1.513628453E0,-4.223940074E-1,1.808004022E0,9.627913475E0
1.518680953E0,-4.128119946E-1,1.872682452E0,9.560838699E0
1.523733505E0,-4.032300115E-1,1.920592546E0,9.517720222E0
1.528786057E0,-3.768795133E-1,1.946943045E0,9.474600792E0
1.533819390E0,-3.433425128E-1,1.982875466E0,9.378781319E0
1.538871942E0,-3.217830062E-1,2.037971973E0,9.294938087E0
1.543924495E0,-2.762685120E-1,2.071508884E0,9.158394814E0
1.548976995E0,-2.307540029E-1,2.097859383E0,9.060179710E0
1.554029547E0,-2.211720049E-1,2.124209881E0,8.988314629E0
1.559082099E0,-2.235675007E-1,2.109837055E0,8.926031113E0
1.564143192E0,-2.475225031E-1,2.090672970E0,8.904472351E0
1.569195745E0,-2.954325080E-1,2.100255013E0,8.835002899E0
1.574248297E0,-3.026190102E-1,2.071508884E0,8.794279099E0
1.579300797E0,-3.169920146E-1,2.083486557E0,8.801465034E0
1.584353349E0,-2.834550142E-1,2.073904514E0,8.815838814E0
1.589405901E0,-2.906414866E-1,2.040367603E0,8.830211639E0
1.594442203E0,-2.523134947E-1,2.052345037E0,8.868539810E0
1.599494755E0,-2.666864991E-1,2.083486557E0,8.923636436E0
1.604547307E0,-3.122009933E-1,2.097859383E0,8.995500565E0
1.609599807E0,-3.385514915E-1,2.102650404E0,9.057784081E0
1.614652359E0,-3.840659857E-1,2.112232447E0,9.151208878E0
1.619704911E0,-4.080210030E-1,2.148164988E0,9.242237091E0
1.624745953E0,-3.625065088E-1,2.167329073E0,9.302124977E0
1.629798505E0,-2.738730013E-1,2.181701899E0,9.333266258E0
1.634851057E0,-2.139855027E-1,2.229612112E0,9.371594429E0
1.639903557E0,-1.013970003E-1,2.282313108E0,9.414713860E0
1.644956109E0,1.609500032E-3,2.346991539E0,9.417108536E0
1.650008661E0,9.024299681E-2,2.349386930E0,9.417108536E0
1.655067359E0,1.070114970E-1,2.385319471E0,9.429086685E0
1.660119911E0,1.165935025E-1,2.414065599E0,9.462623596E0
1.665172463E0,9.742949903E-2,2.423647404E0,9.532093048E0
1.670224963E0,4.472849891E-2,2.392505884E0,9.568025589E0
1.675277515E0,5.670600012E-2,2.378133059E0,9.613539696E0
1.680330067E0,7.347449660E-2,2.342200518E0,9.675823212E0
1.685356422E0,4.233299941E-2,2.282313108E0,9.752478600E0
1.690408974E0,-1.276350021E-2,2.255962610E0,9.788411140E0
1.695461474E0,-2.234550007E-2,2.220030069E0,9.776433945E0
1.700514026E0,-4.390500113E-2,2.200865984E0,9.814762115E0
1.705566578E0,-7.744199783E-2,2.162538052E0,9.843507767E0
1.710619130E0,-8.462850004E-2,2.136187553E0,9.857880592E0
1.715663922E0,-7.744199783E-2,2.114628077E0,9.877044678E0
1.720716474E0,-7.744199783E-2,2.071508884E0,9.860276222E0
1.725769026E0,-5.109149963E-2,2.066718102E0,9.809970856E0
1.730821578E0,-2.474099956E-2,2.083486557E0,9.774038315E0
1.735874078E0,2.316899970E-2,2.119419098E0,9.807575226E0
1.740926630E0,8.066099882E-2,2.169724464E0,9.865067482E0
1.745971630E0,1.118025035E-1,2.222425461E0,9.850694656E0
1.751024182E0,1.405484974E-1,2.277522087E0,9.865067482E0
1.756076734E0,8.545199782E-2,2.282313108E0,9.884231567E0
1.761129234E0,9.024299681E-2,2.301476955E0,9.877044678E0
1.766181786E0,1.070114970E-1,2.315850019E0,9.872254372E0
1.771234338E0,1.094070002E-1,2.323036432E0,9.821948051E0
1.776280432E0,1.070114970E-1,2.303872585E0,9.747688293E0
1.781332984E0,5.191500112E-2,2.289499521E0,9.697382927E0
1.786385536E0,6.389249861E-2,2.315850019E0,9.611144066E0
1.791438036E0,1.022204980E-1,2.330223083E0,9.532093048E0
1.796490588E0,1.165935025E-1,2.339804888E0,9.450646400E0
1.801543140E0,9.982500225E-2,2.315850019E0,9.402735710E0
1.806583140E0,1.046160012E-1,2.303872585E0,9.352430344E0
1.811635692E0,1.118025035E-1,2.303872585E0,9.299729347E0
1.816688245E0,5.431050062E-2,2.248775959E0,9.235051155E0
1.821740745E0,-3.911399841E-2,2.248775959E0,9.237446785E0
1.826793297E0,-1.205610037E-1,2.267940044E0,9.335661888E0
1.831845849E0,-1.445160061E-1,2.260753393E0,9.323684692E0
1.836900172E0,-1.828439981E-1,2.255962610E0,9.321289062E0
1.841952724E0,-2.020079941E-1,2.200865984E0,9.357221603E0
1.847005276E0,-1.876350045E-1,2.203261614E0,9.383571625E0
1.852057776E0,-1.612845063E-1,2.169724464E0,9.450646400E0
1.857110328E0,-2.091944963E-1,2.121814489E0,9.505742073E0
1.862162880E0,-2.259629965E-1,2.085881948E0,9.527301788E0
1.867201890E0,-2.738730013E-1,2.037971973E0,9.548861504E0
1.872254442E0,-3.241784871E-1,2.042762995E0,9.589585304E0
1.877306995E0,-3.936479986E-1,2.018807888E0,9.603958130E0
1.882359495E0,-4.176029861E-1,1.997248530E0,9.651867867E0
1.887412047E0,-3.625065088E-1,1.987666488E0,9.625517845E0
1.892464599E0,-3.313649893E-1,1.997248530E0,9.620726585E0
1.897500692E0,-2.930369973E-1,1.980479956E0,9.615935326E0
1.902553245E0,-2.283585072E-1,2.035576582E0,9.544070244E0
1.907605797E0,-1.684709936E-1,2.071508884E0,9.529697418E0
1.912658349E0,-1.085835025E-1,2.109837055E0,9.496160507E0
1.917710849E0,-8.223299682E-2,2.117023468E0,9.448250771E0
1.922763401E0,-9.660600126E-2,2.162538052E0,9.457832336E0
1.927840015E0,-8.941949904E-2,2.157747030E0,9.429086685E0
1.932892567E0,-1.085835025E-1,2.208052397E0,9.426691055E0
1.937945120E0,-1.229564995E-1,2.229612112E0,9.414713860E0
1.942997620E0,-1.277475059E-1,2.215239048E0,9.433877945E0
1.948050172E0,-1.660754979E-1,2.181701899E0,9.469809532E0
1.953102724E0,-2.427314967E-1,2.107441425E0,9.472205162E0
1.958128817E0,-3.289695084E-1,2.059531450E0,9.522510529E0
1.963181370E0,-3.768795133E-1,2.059531450E0,9.599166870E0
1.968233922E0,-4.798859954E-1,2.025994539E0,9.649472237E0
1.973286422E0,-5.325869918E-1,1.946943045E0,9.692591667E0
1.978338974E0,-5.709149837E-1,1.937361002E0,9.745292664E0
1.983391526E0,-5.804970264E-1,1.930174470E0,9.776433945E0
1.988425901E0,-5.972654819E-1,1.899032950E0,9.786016464E0
1.993478453E0,-5.804970264E-1,1.867891550E0,9.783620834E0
1.998531005E0,-5.325869918E-1,1.887055516E0,9.759665489E0
2.003583505E0,-5.397735238E-1,1.896637559E0,9.702173233E0
2.008636057E0,-5.110275149E-1,1.908614993E0,9.680614471E0
2.013688609E0,-4.679085016E-1,1.954129457E0,9.680614471E0
2.018743609E0,-4.152075052E-1,2.014017105E0,9.726128578E0
2.023796161E0,-3.864614964E-1,2.059531450E0,9.723732948E0
2.028848713E0,-3.553200066E-1,2.052345037E0,9.706964493E0
2.033901213E0,-3.385514915E-1,2.054740429E0,9.697382927E0
2.038953765E0,-3.912524879E-1,2.037971973E0,9.718941689E0
2.044006317E0,-4.152075052E-1,2.047554016E0,9.721337318E0
2.049056370E0,-4.439535141E-1,2.052345037E0,9.718941689E0
2.054108922E0,-4.415580034E-1,2.061927080E0,9.721337318E0
2.059161474E0,-5.038409829E-1,2.025994539E0,9.762061119E0
2.064214026E0,-5.301914811E-1,2.018807888E0,9.793202400E0
2.069266526E0,-5.325869918E-1,2.040367603E0,9.776433945E0
2.074319078E0,-5.565419793E-1,2.045158386E0,9.721337318E0
2.079351838E0,-5.541465282E-1,2.025994539E0,9.687800407E0
2.084403297E0,-4.966545105E-1,2.018807888E0,9.639890671E0
2.089454755E0,-4.822815061E-1,2.028389931E0,9.613539696E0
2.094506213E0,-4.583264887E-1,2.037971973E0,9.556048393E0
2.099557672E0,-4.247894883E-1,2.112232447E0,9.522510529E0
2.104609130E0,-3.696930110E-1,2.160142422E0,9.546465874E0
2.109651005E0,-3.672975004E-1,2.196074963E0,9.577607155E0
2.114702463E0,-3.481335044E-1,2.203261614E0,9.637495041E0
2.119753922E0,-3.193874955E-1,2.188888550E0,9.671031952E0
2.124805380E0,-3.050144911E-1,2.188888550E0,9.759665489E0
2.129856838E0,-3.601109982E-1,2.143373966E0,9.836321831E0
2.134908297E0,-3.792749941E-1,2.145769596E0,9.898604393E0
2.139961109E0,-4.798859954E-1,2.093068600E0,9.980051041E0
2.145012567E0,-5.733104944E-1,2.109837055E0,1.005910301E1
2.150064026E0,-6.092429757E-1,2.097859383E0,1.008305836E1
2.155115484E0,-6.044520140E-1,2.052345037E0,1.006628990E1
2.160166942E0,-6.547574997E-1,2.030785561E0,1.002556610E1
2.165218349E0,-6.619439721E-1,1.999644041E0,9.908186913E0
2.170272463E0,-6.331980228E-1,1.970898032E0,9.838717461E0
2.175323922E0,-6.763169765E-1,1.987666488E0,9.766852379E0
2.180375380E0,-6.595485210E-1,1.997248530E0,9.647076607E0
2.185426838E0,-6.475710273E-1,2.035576582E0,9.544070244E0
2.190478297E0,-6.882944703E-1,2.057136059E0,9.488973618E0
2.195529755E0,-6.811079979E-1,2.073904514E0,9.462623596E0
2.200584338E0,-6.236159801E-1,2.064322472E0,9.417108536E0
2.205635797E0,-6.140339971E-1,2.078695536E0,9.445855141E0
2.210687255E0,-6.044520140E-1,2.066718102E0,9.455436707E0
2.215738713E0,-5.277959704E-1,2.059531450E0,9.515324593E0
2.220790172E0,-4.990499914E-1,2.064322472E0,9.563234329E0
2.225841630E0,-4.655129910E-1,2.085881948E0,9.572816849E0
2.230896057E0,-4.846769869E-1,2.097859383E0,9.671031952E0
2.235947463E0,-4.750950038E-1,2.081090927E0,9.694987297E0
2.240998922E0,-5.062364936E-1,2.121814489E0,9.673427582E0
2.246050380E0,-4.846769869E-1,2.129000902E0,9.721337318E0
2.251101838E0,-4.894680083E-1,2.117023468E0,9.709360123E0
2.256153297E0,-5.757060051E-1,2.140978575E0,9.683009148E0
2.261204234E0,-5.613330007E-1,2.143373966E0,9.656659126E0
2.266255692E0,-5.254005194E-1,2.148164988E0,9.553652763E0
2.271307151E0,-5.469599962E-1,2.193679571E0,9.498556137E0
2.276358609E0,-4.942589998E-1,2.208052397E0,9.381176949E0
2.281410067E0,-4.463489950E-1,2.210448027E0,9.333266258E0
2.286461474E0,-4.631175101E-1,2.232007504E0,9.247028351E0
2.291501942E0,-4.128119946E-1,2.275126457E0,9.199118614E0
2.296553401E0,-3.792749941E-1,2.287103891E0,9.172767639E0
2.301604859E0,-3.864614964E-1,2.287103891E0,9.189536095E0
2.306656317E0,-4.152075052E-1,2.263149023E0,9.232655525E0
2.311707776E0,-4.607219994E-1,2.258358002E0,9.237446785E0
2.316759234E0,-4.535354972E-1,2.212843418E0,9.266192436E0
2.321810640E0,-4.774905145E-1,2.167329073E0,9.294938087E0
2.326862099E0,-5.301914811E-1,2.081090927E0,9.388362885E0
2.331913557E0,-5.062364936E-1,2.049949408E0,9.419504166E0
2.336965015E0,-5.565419793E-1,2.002039433E0,9.517720222E0
2.342016474E0,-5.709149837E-1,1.982875466E0,9.553652763E0
2.347067932E0,-5.349825025E-1,1.970898032E0,9.572816849E0
2.352116317E0,-5.301914811E-1,1.999644041E0,9.587189674E0
2.357167776E0,-5.158184767E-1,1.994853020E0,9.603958130E0
2.362219234E0,-4.822815061E-1,1.985270977E0,9.527301788E0
2.367270692E0,-4.343715012E-1,2.023598909E0,9.512928963E0
2.372322151E0,-4.056254923E-1,1.999644041E0,9.445855141E0
2.377373609E0,-3.960435092E-1,2.009226084E0,9.335661888E0
2.382426109E0,-3.361560106E-1,1.980479956E0,9.254215240E0
2.387477567E0,-3.193874955E-1,1.963711500E0,9.141626358E0
2.392529026E0,-2.786639929E-1,1.961315989E0,9.021851540E0
2.397580484E0,-1.996124983E-1,1.951733947E0,8.949986458E0
2.402631942E0,-1.564934999E-1,1.918197036E0,8.887703896E0
2.407683401E0,-1.996124983E-1,1.949338555E0,8.820629120E0
2.412697307E0,-2.259629965E-1,2.006830454E0,8.763137817E0
2.417748765E0,-2.618955076E-1,2.028389931E0,8.703249931E0
2.422800224E0,-2.738730013E-1,2.081090927E0,8.664921761E0
2.427851682E0,-3.074100018E-1,2.119419098E0,8.660131454E0
2.432903140E0,-3.313649893E-1,2.155351400E0,8.633780479E0
2.437954599E0,-3.193874955E-1,2.229612112E0,8.650548935E0
2.443039963E0,-2.858504951E-1,2.284708500E0,8.667317390E0
2.448091422E0,-1.924259961E-1,2.287103891E0,8.705645561E0
2.453142880E0,-1.325384974E-1,2.265544415E0,8.801465034E0
2.458194338E0,-1.804485023E-1,2.229612112E0,8.930822372E0
2.463245797E0,-2.235675007E-1,2.174515486E0,9.081739426E0
2.468297255E0,-2.403360009E-1,2.145769596E0,9.309311867E0
2.473346734E0,-2.427314967E-1,2.138582945E0,9.522510529E0
2.478398192E0,-2.978279889E-1,2.107441425E0,9.747688293E0
2.483449651E0,-3.265739977E-1,2.085881948E0,9.968073845E0
2.488501109E0,-3.457379937E-1,2.011621475E0,1.015252781E1
2.493552567E0,-3.625065088E-1,1.944547534E0,1.028188419E1
2.498604026E0,-3.672975004E-1,1.887055516E0,1.036333179E1
2.503662411E0,-4.152075052E-1,1.812795043E0,1.048789787E1
2.508713870E0,-4.295805097E-1,1.728952527E0,1.056455326E1
2.513765328E0,-4.679085016E-1,1.693019986E0,1.059809017E1
2.518816786E0,-4.990499914E-1,1.640318990E0,1.059090424E1
2.523868245E0,-5.277959704E-1,1.630736947E0,1.059809017E1
2.528919703E0,-5.541465282E-1,1.628341556E0,1.055018044E1
2.533957255E0,-5.637285113E-1,1.637923479E0,1.046873379E1
2.539008713E0,-5.637285113E-1,1.642714500E0,1.040165997E1
2.544060172E0,-5.038409829E-1,1.666669488E0,1.026990700E1
2.549111630E0,-4.679085016E-1,1.714579463E0,1.015252781E1
2.554163088E0,-4.439535141E-1,1.736139059E0,1.001837921E1
2.559214547E0,-4.367670119E-1,1.733743548E0,9.862671852E0
2.564292515E0,-4.319759905E-1,1.781653523E0,9.721337318E0
2.569343974E0,-3.984389901E-1,1.848727465E0,9.623122215E0
2.574395432E0,-3.241784871E-1,1.875077963E0,9.510533333E0
2.579446890E0,-2.618955076E-1,1.954129457E0,9.402735710E0
2.584498349E0,-2.259629965E-1,1.992457509E0,9.354825974E0
2.589549755E0,-1.540980041E-1,2.037971973E0,9.354825974E0
2.594634390E0,-7.744199783E-2,2.107441425E0,9.364407539E0
2.599685849E0,-4.390500113E-2,2.136187553E0,9.438668251E0
2.604737255E0,1.119150035E-2,2.124209881E0,9.438668251E0
2.609788765E0,4.004999995E-3,2.114628077E0,9.505742073E0
2.614840224E0,-7.859999896E-4,2.097859383E0,9.587189674E0
2.619891682E0,-6.546449661E-2,2.066718102E0,9.671031952E0
2.624875224E0,-1.253519952E-1,2.011621475E0,9.721337318E0
2.629926682E0,-1.636800021E-1,1.968502522E0,9.805179596E0
2.634978140E0,-2.451270074E-1,1.915801525E0,9.877044678E0
2.640029599E0,-3.002234995E-1,1.824772477E0,9.910581589E0
2.645081057E0,-3.505289853E-1,1.798421979E0,9.912977219E0
2.650132515E0,-4.176029861E-1,1.757698536E0,9.963282585E0
2.655192672E0,-4.631175101E-1,1.748116493E0,9.992029190E0
2.660244078E0,-5.349825025E-1,1.733743548E0,9.936932564E0
2.665295588E0,-5.301914811E-1,1.724161506E0,9.912977219E0
2.670347047E0,-5.445644855E-1,1.755303025E0,9.855485916E0
2.675398505E0,-5.134230256E-1,1.776862502E0,9.786016464E0
2.680449963E0,-5.277959704E-1,1.776862502E0,9.738105774E0
2.685486682E0,-4.990499914E-1,1.776862502E0,9.702173233E0
2.690538140E0,-4.822815061E-1,1.784049034E0,9.656659126E0
2.695589599E0,-4.822815061E-1,1.824772477E0,9.678218842E0
2.700641057E0,-4.056254923E-1,1.831959009E0,9.699777603E0
2.705692515E0,-3.074100018E-1,1.894242048E0,9.747688293E0
2.710743974E0,-2.115900069E-1,1.951733947E0,9.771642685E0
2.715809130E0,-2.115900069E-1,1.970898032E0,9.788411140E0
2.720860588E0,-2.259629965E-1,1.994853020E0,9.845903397E0
2.725912047E0,-2.523134947E-1,2.045158386E0,9.869858742E0
2.730963505E0,-2.427314967E-1,2.081090927E0,9.877044678E0
2.736014963E0,-2.499179989E-1,2.114628077E0,9.915372849E0
2.741066422E0,-2.810595036E-1,2.105046034E0,9.860276222E0
2.746120120E0,-2.523134947E-1,2.088277578E0,9.814762115E0
2.751171526E0,-1.948215067E-1,2.088277578E0,9.795598030E0
2.756223036E0,-1.708665043E-1,2.131396532E0,9.797993660E0
2.761274495E0,-1.708665043E-1,2.138582945E0,9.783620834E0
2.766325953E0,-2.091944963E-1,2.140978575E0,9.771642685E0
2.771377359E0,-2.355449945E-1,2.160142422E0,9.728524208E0
2.776413765E0,-2.427314967E-1,2.133791924E0,9.699777603E0
2.781465224E0,-2.810595036E-1,2.105046034E0,9.702173233E0
2.786516682E0,-3.122009933E-1,2.126605511E0,9.738105774E0
2.791568088E0,-2.714774907E-1,2.117023468E0,9.687800407E0
2.796619599E0,-2.834550142E-1,2.145769596E0,9.666240692E0
2.801671057E0,-3.122009933E-1,2.179306507E0,9.601562500E0
2.806714495E0,-3.361560106E-1,2.208052397E0,9.524906158E0
2.811765953E0,-3.409470022E-1,2.205657005E0,9.474600792E0
2.816817411E0,-3.337605000E-1,2.255962610E0,9.433877945E0
2.821868870E0,-3.098055124E-1,2.270335436E0,9.385967255E0
2.826920328E0,-2.666864991E-1,2.299081564E0,9.326080322E0
2.831971734E0,-1.900305003E-1,2.306267977E0,9.282960892E0
2.837025588E0,-1.660754979E-1,2.289499521E0,9.237446785E0
2.842077047E0,-1.349339932E-1,2.330223083E0,9.244632721E0
2.847128453E0,-1.253519952E-1,2.342200518E0,9.235051155E0
2.852179963E0,-1.636800021E-1,2.337409496E0,9.194327354E0
2.857231422E0,-1.900305003E-1,2.375737429E0,9.227864265E0
2.862282880E0,-2.403360009E-1,2.337409496E0,9.294938087E0
2.867347620E0,-2.882460058E-1,2.327827454E0,9.314102173E0
2.872399130E0,-2.618955076E-1,2.289499521E0,9.326080322E0
2.877450588E0,-2.618955076E-1,2.306267977E0,9.390758514E0
2.882502047E0,-3.002234995E-1,2.291894913E0,9.433877945E0
2.887553505E0,-3.553200066E-1,2.243984938E0,9.505742073E0
2.892604963E0,-3.696930110E-1,2.188888550E0,9.584794044E0
2.897652411E0,-4.008345008E-1,2.160142422E0,9.620726585E0
2.902703870E0,-4.056254923E-1,2.167329073E0,9.661450386E0
2.907755328E0,-4.319759905E-1,2.121814489E0,9.738105774E0
2.912806786E0,-4.631175101E-1,2.126605511E0,9.747688293E0
2.917858245E0,-5.134230256E-1,2.102650404E0,9.759665489E0
2.922909703E0,-5.709149837E-1,2.107441425E0,9.771642685E0
2.927966265E0,-5.733104944E-1,2.129000902E0,9.802784920E0
2.933017724E0,-5.541465282E-1,2.162538052E0,9.793202400E0
2.938069182E0,-5.301914811E-1,2.133791924E0,9.752478600E0
2.943120640E0,-4.750950038E-1,2.162538052E0,9.738105774E0
2.948172099E0,-4.343715012E-1,2.208052397E0,9.644681931E0
2.953223505E0,-3.744840026E-1,2.198470592E0,9.620726585E0
2.958265380E0,-3.433425128E-1,2.162538052E0,9.584794044E0
2.963316838E0,-3.122009933E-1,2.150560617E0,9.572816849E0
2.968368297E0,-2.762685120E-1,2.172120094E0,9.575211525E0
2.973419755E0,-2.571044862E-1,2.164933443E0,9.558443069E0
2.978471213E0,-2.547090054E-1,2.172120094E0,9.654263496E0
2.983522672E0,-2.738730013E-1,2.167329073E0,9.716546059E0
2.988580067E0,-2.475225031E-1,2.191283941E0,9.797993660E0
2.993631474E0,-2.618955076E-1,2.193679571E0,9.843507767E0
2.998682984E0,-2.403360009E-1,2.229612112E0,9.877044678E0
3.003734442E0,-2.451270074E-1,2.179306507E0,9.867463112E0
3.008785901E0,-2.666864991E-1,2.124209881E0,9.889022827E0
3.013837307E0,-2.858504951E-1,2.121814489E0,9.972865105E0
3.018866942E0,-2.882460058E-1,2.097859383E0,9.936932564E0
3.023918401E0,-2.714774907E-1,2.083486557E0,9.898604393E0
3.028969859E0,-3.169920146E-1,2.085881948E0,9.877044678E0
3.034021317E0,-3.313649893E-1,2.047554016E0,9.848299026E0
3.039072776E0,-2.978279889E-1,2.042762995E0,9.845903397E0
3.044124234E0,-3.313649893E-1,2.049949408E0,9.807575226E0
3.049182047E0,-2.834550142E-1,2.126605511E0,9.829134941E0
3.054233505E0,-2.139855027E-1,2.198470592E0,9.814762115E0
3.059284963E0,-1.756574959E-1,2.251171589E0,9.807575226E0
3.064336422E0,-9.900149703E-2,2.270335436E0,9.764456749E0
3.069387880E0,-6.785999984E-2,2.239193916E0,9.762061119E0
3.074439338E0,-8.941949904E-2,2.232007504E0,9.726128578E0
3.079495953E0,-8.223299682E-2,2.270335436E0,9.683009148E0
3.084547203E0,-1.421204954E-1,2.239193916E0,9.735710144E0
3.089598505E0,-2.067990005E-1,2.289499521E0,9.860276222E0
3.094649755E0,-2.187764943E-1,2.327827454E0,1.004712582E1
3.099701057E0,-2.067990005E-1,2.361364603E0,1.021960163E1
3.104752359E0,-1.924259961E-1,2.342200518E0,1.025553417E1
3.109802672E0,-9.421049803E-2,2.327827454E0,1.020283318E1
3.114853922E0,-3.671849892E-2,2.308663607E0,1.007826710E1
3.119905224E0,-3.192749992E-2,2.277522087E0,9.903395653E0
3.124956474E0,-8.223299682E-2,2.296685934E0,9.726128578E0
3.130007724E0,-1.373295039E-1,2.279917479E0,9.536884308E0
3.135059078E0,-2.020079941E-1,2.299081564E0,9.395549774E0
3.140098817E0,-2.379405051E-1,2.311058998E0,9.261401176E0
3.145150120E0,-2.642909884E-1,2.296685934E0,9.141626358E0
3.150201370E0,-2.834550142E-1,2.337409496E0,9.033828735E0
3.155252672E0,-2.762685120E-1,2.358968973E0,8.978732109E0
3.160303922E0,-2.523134947E-1,2.363759995E0,8.942799568E0
3.165355224E0,-2.307540029E-1,2.423647404E0,8.981127739E0
3.170403088E0,-1.948215067E-1,2.497908115E0,9.007478714E0
3.175454390E0,-1.612845063E-1,2.519467592E0,9.055388451E0
3.180505640E0,-1.517024934E-1,2.545818090E0,9.098507881E0
3.185556942E0,-1.037925035E-1,2.538631439E0,9.081739426E0
3.190608192E0,-8.941949904E-2,2.538631439E0,9.072156906E0
3.195659442E0,-1.253519952E-1,2.538631439E0,9.146417618E0
3.200719599E0,-1.612845063E-1,2.529049397E0,9.165581703E0
3.205770901E0,-2.091944963E-1,2.502698898E0,9.167977333E0
3.210822151E0,-2.499179989E-1,2.471557617E0,9.151208878E0
3.215873453E0,-2.810595036E-1,2.440416098E0,9.242237091E0
3.220924703E0,-2.427314967E-1,2.435625076E0,9.244632721E0
3.225976005E0,-2.475225031E-1,2.428438425E0,9.311706543E0
3.231026057E0,-2.115900069E-1,2.481139421E0,9.316497803E0
3.236077307E0,-2.283585072E-1,2.476348400E0,9.330870628E0
3.241128609E0,-2.163809985E-1,2.461975574E0,9.417108536E0
3.246179859E0,-2.020079941E-1,2.454788923E0,9.453041077E0
3.251231161E0,-2.163809985E-1,2.466766596E0,9.515324593E0
3.256282463E0,-2.044035047E-1,2.430834055E0,9.611144066E0
3.261333505E0,-1.684709936E-1,2.416460991E0,9.663845062E0
3.266384755E0,-1.636800021E-1,2.390110493E0,9.678218842E0
3.271436057E0,-1.684709936E-1,2.368551016E0,9.721337318E0
3.276487307E0,-1.085835025E-1,2.303872585E0,9.757269859E0
3.281538609E0,-1.133745015E-1,2.323036432E0,9.742897034E0
3.286589859E0,-1.061879992E-1,2.303872585E0,9.800389290E0
3.291640588E0,-1.684709936E-1,2.294290543E0,9.778829575E0
3.296691942E0,-1.996124983E-1,2.301476955E0,9.797993660E0
3.301743192E0,-2.211720049E-1,2.335014105E0,9.778829575E0
3.306794495E0,-2.451270074E-1,2.346991539E0,9.745292664E0
3.311845745E0,-2.523134947E-1,2.361364603E0,9.714151382E0
3.316897047E0,-2.618955076E-1,2.344595909E0,9.738105774E0
3.321962099E0,-2.499179989E-1,2.325432062E0,9.721337318E0
3.327013349E0,-2.259629965E-1,2.342200518E0,9.738105774E0
3.332064703E0,-2.020079941E-1,2.363759995E0,9.730919838E0
3.337115953E0,-1.756574959E-1,2.342200518E0,9.740501404E0
3.342167255E0,-1.493069977E-1,2.344595909E0,9.714151382E0
3.347218505E0,-1.349339932E-1,2.346991539E0,9.687800407E0
3.352249547E0,-1.037925035E-1,2.351782560E0,9.663845062E0
3.357300849E0,-6.785999984E-2,2.392505884E0,9.668636322E0
3.362352151E0,-3.911399841E-2,2.390110493E0,9.623122215E0
3.367403401E0,-5.588249862E-2,2.399692535E0,9.623122215E0
3.372454703E0,-7.025550306E-2,2.454788923E0,9.683009148E0
3.377505953E0,-8.941949904E-2,2.461975574E0,9.711755753E0
3.382568140E0,-7.504650205E-2,2.416460991E0,9.721337318E0
3.387619442E0,-7.983750105E-2,2.402087927E0,9.730919838E0
3.392670745E0,-9.660600126E-2,2.370946407E0,9.742897034E0
3.397721995E0,-1.636800021E-1,2.327827454E0,9.728524208E0
3.402773245E0,-2.067990005E-1,2.313454390E0,9.654263496E0
3.407824495E0,-2.355449945E-1,2.272731066E0,9.704568863E0
3.412879078E0,-3.098055124E-1,2.217634439E0,9.776433945E0
3.417930380E0,-3.625065088E-1,2.205657005E0,9.757269859E0
3.422981630E0,-3.696930110E-1,2.162538052E0,9.771642685E0
3.428032880E0,-3.864614964E-1,2.131396532E0,9.781225204E0
3.433084182E0,-3.792749941E-1,2.140978575E0,9.738105774E0
3.438135432E0,-3.577154875E-1,2.162538052E0,9.699777603E0
3.443146265E0,-3.481335044E-1,2.181701899E0,9.663845062E0
3.448197515E0,-3.265739977E-1,2.198470592E0,9.625517845E0
3.453248817E0,-3.169920146E-1,2.267940044E0,9.512928963E0
3.458300067E0,-3.193874955E-1,2.289499521E0,9.426691055E0
3.463351370E0,-3.074100018E-1,2.349386930E0,9.347639084E0
3.468402620E0,-2.475225031E-1,2.392505884E0,9.259005547E0
3.473456005E0,-2.259629965E-1,2.445207119E0,9.155999184E0
3.478507255E0,-1.349339932E-1,2.471557617E0,9.105693817E0
3.483558557E0,-1.277475059E-1,2.495512486E0,9.064970970E0
3.488609859E0,-9.421049803E-2,2.526654005E0,9.014664650E0
3.493661109E0,-4.390500113E-2,2.502698898E0,8.969150543E0
3.498712411E0,-2.713650092E-2,2.531445026E0,8.933218002E0
3.503782984E0,-3.192749992E-2,2.564981937E0,8.921240807E0
3.508834286E0,-6.067350134E-2,2.548213482E0,8.978732109E0
3.513885588E0,-1.277475059E-1,2.526654005E0,9.007478714E0
3.518936838E0,-1.732620001E-1,2.507489920E0,9.024247169E0
3.523988088E0,-2.307540029E-1,2.471557617E0,9.067365646E0
3.529039390E0,-2.331494987E-1,2.464370966E0,9.165581703E0
3.534087724E0,-2.834550142E-1,2.430834055E0,9.177558899E0
3.539139026E0,-3.169920146E-1,2.380528450E0,9.244632721E0
3.544190328E0,-3.217830062E-1,2.346991539E0,9.306916237E0
3.549241578E0,-3.433425128E-1,2.330223083E0,9.330870628E0
3.554292880E0,-3.361560106E-1,2.313454390E0,9.378781319E0
3.559344130E0,-3.098055124E-1,2.327827454E0,9.419504166E0
3.564393140E0,-2.714774907E-1,2.344595909E0,9.426691055E0
3.569444442E0,-2.475225031E-1,2.366155386E0,9.450646400E0
3.574495692E0,-2.187764943E-1,2.423647404E0,9.438668251E0
3.579546995E0,-1.828439981E-1,2.452393532E0,9.395549774E0
3.584598245E0,-1.085835025E-1,2.490721464E0,9.402735710E0
3.589649547E0,-7.504650205E-2,2.505094528E0,9.429086685E0
3.594707984E0,-5.588249862E-2,2.505094528E0,9.378781319E0
3.599759234E0,4.004999995E-3,2.512280941E0,9.352430344E0
3.604810484E0,-1.995000057E-2,2.519467592E0,9.378781319E0
3.609861786E0,-6.785999984E-2,2.521862984E0,9.350034714E0
3.614913088E0,-1.253519952E-1,2.497908115E0,9.318893433E0
3.619964390E0,-1.900305003E-1,2.442811489E0,9.381176949E0
3.625018817E0,-2.618955076E-1,2.392505884E0,9.362012863E0
3.630070067E0,-2.978279889E-1,2.375737429E0,9.378781319E0
3.635121370E0,-3.122009933E-1,2.354177952E0,9.419504166E0
3.640172620E0,-3.529244959E-1,2.318245411E0,9.498556137E0
3.645223870E0,-3.553200066E-1,2.346991539E0,9.568025589E0
3.650275224E0,-3.050144911E-1,2.335014105E0,9.603958130E0
3.655330120E0,-2.930369973E-1,2.375737429E0,9.663845062E0
3.660381370E0,-2.690820098E-1,2.375737429E0,9.668636322E0
3.665432620E0,-1.948215067E-1,2.382924080E0,9.714151382E0
3.670483922E0,-1.876350045E-1,2.411669970E0,9.704568863E0
3.675535172E0,-1.828439981E-1,2.404483557E0,9.706964493E0
3.680586526E0,-1.540980041E-1,2.361364603E0,9.680614471E0
3.685619078E0,-1.660754979E-1,2.361364603E0,9.654263496E0
3.690670380E0,-1.972170025E-1,2.375737429E0,9.651867867E0
3.695721630E0,-2.283585072E-1,2.394901514E0,9.625517845E0
3.700772880E0,-2.714774907E-1,2.327827454E0,9.651867867E0
3.705824182E0,-3.241784871E-1,2.358968973E0,9.685404778E0
3.710875484E0,-3.768795133E-1,2.392505884E0,9.685404778E0
3.715948817E0,-3.625065088E-1,2.438020468E0,9.685404778E0
3.721000067E0,-3.385514915E-1,2.406878948E0,9.678218842E0
3.726051370E0,-3.122009933E-1,2.409274578E0,9.654263496E0
3.731102672E0,-2.666864991E-1,2.440416098E0,9.611144066E0
3.736153922E0,-2.547090054E-1,2.447602510E0,9.565629959E0
3.741205224E0,-2.451270074E-1,2.435625076E0,9.522510529E0
3.746287724E0,-2.259629965E-1,2.466766596E0,9.476996422E0
3.751339026E0,-2.115900069E-1,2.457184553E0,9.429086685E0
3.756390328E0,-1.708665043E-1,2.471557617E0,9.390758514E0
3.761441578E0,-1.013970003E-1,2.512280941E0,9.390758514E0
3.766492828E0,-9.900149703E-2,2.514676571E0,9.412318230E0
3.771544130E0,-1.253519952E-1,2.500303507E0,9.476996422E0
3.776553713E0,-9.421049803E-2,2.574563980E0,9.512928963E0
3.781604963E0,-8.941949904E-2,2.584146023E0,9.524906158E0
3.786656265E0,-1.133745015E-1,2.567377567E0,9.625517845E0
3.791707515E0,-8.223299682E-2,2.593728065E0,9.800389290E0
3.796758817E0,-1.061879992E-1,2.593728065E0,9.977656364E0
3.801810120E0,-1.517024934E-1,2.562586546E0,1.015252781E1
3.806860328E0,-1.804485023E-1,2.533840418E0,1.024834728E1
3.811911578E0,-2.235675007E-1,2.509885550E0,1.035614491E1
3.816962880E0,-1.972170025E-1,2.500303507E0,1.034656334E1
3.822014130E0,-2.020079941E-1,2.447602510E0,1.027948856E1
3.827065432E0,-1.804485023E-1,2.435625076E0,1.020283318E1
3.832116734E0,-1.828439981E-1,2.414065599E0,1.007587147E1
3.837176005E0,-1.876350045E-1,2.397296906E0,9.970469475E0
3.842227255E0,-1.756574959E-1,2.421252012E0,9.886627197E0
3.847278557E0,-2.091944963E-1,2.469161987E0,9.766852379E0
3.852329807E0,-2.139855027E-1,2.495512486E0,9.671031952E0
3.857381109E0,-2.307540029E-1,2.512280941E0,9.632703781E0
3.862432411E0,-2.187764943E-1,2.548213482E0,9.568025589E0
3.867488713E0,-1.948215067E-1,2.576959610E0,9.539279938E0
3.872539963E0,-2.379405051E-1,2.560190916E0,9.443459511E0
3.877591265E0,-2.379405051E-1,2.521862984E0,9.421899796E0
3.882642567E0,-2.331494987E-1,2.502698898E0,9.400340080E0
3.887693817E0,-2.331494987E-1,2.541027069E0,9.342848778E0
3.892745120E0,-2.475225031E-1,2.538631439E0,9.299729347E0
3.897779338E0,-2.738730013E-1,2.502698898E0,9.215887070E0
3.902830588E0,-2.858504951E-1,2.509885550E0,9.187141418E0
3.907881890E0,-2.834550142E-1,2.476348400E0,9.103298187E0
3.912933192E0,-3.265739977E-1,2.490721464E0,9.038619995E0
3.917984442E0,-3.625065088E-1,2.507489920E0,8.952382088E0
3.923035745E0,-3.649019897E-1,2.524258614E0,8.954777718E0
3.928074599E0,-4.128119946E-1,2.521862984E0,8.954777718E0
3.933125901E0,-3.936479986E-1,2.557795525E0,8.902076721E0
3.938177203E0,-3.649019897E-1,2.526654005E0,8.928426743E0
3.943228453E0,-3.481335044E-1,2.521862984E0,8.930822372E0
3.948279755E0,-3.265739977E-1,2.524258614E0,8.909262657E0
3.953331005E0,-2.834550142E-1,2.502698898E0,8.964359283E0
3.958397880E0,-3.002234995E-1,2.517071962E0,9.009874344E0
3.963449130E0,-2.810595036E-1,2.533840418E0,9.029038429E0
3.968500432E0,-3.313649893E-1,2.524258614E0,9.081739426E0
3.973551682E0,-3.672975004E-1,2.517071962E0,9.120066643E0
3.978602984E0,-4.008345008E-1,2.538631439E0,9.165581703E0
3.983654286E0,-4.056254923E-1,2.529049397E0,9.206304550E0
3.988710953E0,-4.056254923E-1,2.507489920E0,9.270983696E0
3.993762203E0,-4.176029861E-1,2.476348400E0,9.321289062E0
3.998813505E0,-3.696930110E-1,2.485930443E0,9.412318230E0
4.003864755E0,-3.744840026E-1,2.476348400E0,9.510533333E0
4.008916057E0,-3.792749941E-1,2.529049397E0,9.632703781E0
4.013967359E0,-3.720884919E-1,2.529049397E0,9.735710144E0
4.019016838E0,-3.505289853E-1,2.495512486E0,9.747688293E0
4.024068088E0,-2.930369973E-1,2.509885550E0,9.795598030E0
4.029119390E0,-2.355449945E-1,2.512280941E0,9.781225204E0
4.034170640E0,-1.852394938E-1,2.550609112E0,9.692591667E0
4.039221942E0,-1.421204954E-1,2.574563980E0,9.620726585E0
4.044273245E0,-1.061879992E-1,2.598519087E0,9.544070244E0
4.049316005E0,-1.445160061E-1,2.596123457E0,9.438668251E0
4.054367255E0,-1.229564995E-1,2.670383930E0,9.342848778E0
4.059418557E0,-6.785999984E-2,2.718293905E0,9.266192436E0
4.064469807E0,-3.192749992E-2,2.751831055E0,9.227864265E0
4.069521109E0,-1.755449921E-2,2.785367966E0,9.144021988E0
4.074572411E0,2.556449920E-2,2.845255613E0,9.155999184E0
4.079615849E0,8.784750104E-2,2.888374567E0,9.151208878E0
4.084666995E0,1.261754930E-1,2.931493521E0,9.115276337E0
4.089718140E0,1.692945063E-1,2.943470955E0,9.136835098E0
4.094769286E0,1.692945063E-1,2.979403496E0,9.182350159E0
4.099820432E0,1.788765043E-1,2.950657606E0,9.213491440E0
4.104871578E0,1.573169976E-1,2.943470955E0,9.261401176E0
4.109939755E0,1.597124934E-1,2.950657606E0,9.314102173E0
4.114990901E0,1.668989956E-1,2.917120457E0,9.321289062E0
4.120042099E0,1.477349997E-1,2.900352001E0,9.342848778E0
4.125093245E0,1.573169976E-1,2.890769958E0,9.397945404E0
4.130144338E0,9.503400326E-2,2.881187916E0,9.419504166E0
4.135195484E0,2.796000056E-2,2.838068962E0,9.429086685E0
4.140235067E0,8.795999922E-3,2.859628439E0,9.417108536E0
4.145286213E0,-1.995000057E-2,2.818905115E0,9.438668251E0
4.150337359E0,-1.036799978E-2,2.802136421E0,9.448250771E0
4.155388505E0,-2.234550007E-2,2.814114094E0,9.431482315E0
4.160439651E0,-3.181499895E-3,2.821300507E0,9.469809532E0
4.165490797E0,-7.972500287E-3,2.818905115E0,9.515324593E0
4.170553453E0,3.993749991E-2,2.809323072E0,9.560838699E0
4.175604599E0,4.712399840E-2,2.809323072E0,9.556048393E0
4.180655745E0,6.628800184E-2,2.785367966E0,9.625517845E0
4.185706890E0,1.141979992E-1,2.790158987E0,9.606353760E0
4.190758036E0,1.094070002E-1,2.737457991E0,9.570421219E0
4.195809182E0,8.305650204E-2,2.742249012E0,9.560838699E0
4.200859442E0,1.609500032E-3,2.747040033E0,9.512928963E0
4.205910588E0,-3.192749992E-2,2.706316471E0,9.486578941E0
4.210961786E0,-7.744199783E-2,2.658406496E0,9.488973618E0
4.216012932E0,-1.636800021E-1,2.670383930E0,9.460227966E0
4.221064078E0,-2.139855027E-1,2.670383930E0,9.472205162E0
4.226115172E0,-2.235675007E-1,2.603310108E0,9.515324593E0
4.231157828E0,-2.283585072E-1,2.629660606E0,9.491369247E0
4.236208974E0,-2.283585072E-1,2.586541414E0,9.479392052E0
4.241260120E0,-1.756574959E-1,2.617682934E0,9.498556137E0
4.246311265E0,-1.421204954E-1,2.627264977E0,9.493764877E0
4.251362411E0,-9.660600126E-2,2.641638041E0,9.488973618E0
4.256413505E0,-4.869600013E-2,2.648824453E0,9.534488678E0
4.261518817E0,1.609500032E-3,2.644033432E0,9.536884308E0
4.266569911E0,2.077350020E-2,2.636847019E0,9.527301788E0
4.271621057E0,4.951950163E-2,2.648824453E0,9.580002785E0
4.276672203E0,1.837800071E-2,2.656011105E0,9.591980934E0
4.281723401E0,-4.390500113E-2,2.615287542E0,9.596771240E0
4.286774495E0,-9.421049803E-2,2.579355001E0,9.627913475E0
4.291770640E0,-1.205610037E-1,2.569772959E0,9.697382927E0
4.296821786E0,-1.588889956E-1,2.509885550E0,9.726128578E0
4.301872932E0,-2.235675007E-1,2.478744030E0,9.738105774E0
4.306924078E0,-2.786639929E-1,2.466766596E0,9.754874229E0
4.311975224E0,-2.834550142E-1,2.404483557E0,9.726128578E0
4.317026370E0,-2.714774907E-1,2.385319471E0,9.697382927E0
4.322087151E0,-2.499179989E-1,2.368551016E0,9.680614471E0
4.327138297E0,-2.283585072E-1,2.358968973E0,9.704568863E0
4.332189442E0,-1.708665043E-1,2.387715101E0,9.690196037E0
4.337240588E0,-1.708665043E-1,2.358968973E0,9.702173233E0
4.342291734E0,-1.996124983E-1,2.392505884E0,9.697382927E0
4.347342880E0,-2.115900069E-1,2.452393532E0,9.673427582E0
4.352401838E0,-1.900305003E-1,2.464370966E0,9.685404778E0
4.357452984E0,-2.044035047E-1,2.440416098E0,9.596771240E0
4.362504130E0,-2.067990005E-1,2.488326073E0,9.536884308E0
4.367555276E0,-1.421204954E-1,2.514676571E0,9.476996422E0
4.372606422E0,-1.421204954E-1,2.505094528E0,9.373990059E0
4.377657567E0,-9.900149703E-2,2.485930443E0,9.282960892E0
4.382701161E0,-7.265099883E-2,2.485930443E0,9.270983696E0
4.387752307E0,-9.421049803E-2,2.488326073E0,9.273379326E0
4.392803453E0,-1.061879992E-1,2.488326073E0,9.247028351E0
4.397854599E0,-9.660600126E-2,2.502698898E0,9.292543411E0
4.402905745E0,-5.109149963E-2,2.502698898E0,9.342848778E0
4.407956838E0,-5.827800184E-2,2.529049397E0,9.390758514E0
4.413001213E0,-5.348699912E-2,2.548213482E0,9.412318230E0
4.418052359E0,-4.390500113E-2,2.533840418E0,9.479392052E0
4.423103505E0,-6.067350134E-2,2.541027069E0,9.544070244E0
4.428154651E0,-7.265099883E-2,2.550609112E0,9.591980934E0
4.433205797E0,-4.390500113E-2,2.531445026E0,9.572816849E0
4.438256942E0,-7.744199783E-2,2.509885550E0,9.575211525E0
4.443311370E0,-5.827800184E-2,2.481139421E0,9.572816849E0
4.448362515E0,-7.504650205E-2,2.464370966E0,9.551257133E0
4.453413661E0,-1.349339932E-1,2.445207119E0,9.575211525E0
4.458464807E0,-1.325384974E-1,2.409274578E0,9.589585304E0
4.463515953E0,-1.493069977E-1,2.404483557E0,9.568025589E0
4.468567099E0,-1.540980041E-1,2.414065599E0,9.577607155E0
4.473617359E0,-1.469115019E-1,2.406878948E0,9.577607155E0
4.478668505E0,-1.517024934E-1,2.445207119E0,9.589585304E0
4.483719651E0,-1.517024934E-1,2.461975574E0,9.596771240E0
4.488770797E0,-1.732620001E-1,2.452393532E0,9.613539696E0
4.493821942E0,-1.924259961E-1,2.471557617E0,9.654263496E0
4.498873088E0,-1.540980041E-1,2.469161987E0,9.618330956E0
4.503928192E0,-1.445160061E-1,2.464370966E0,9.591980934E0
4.508979338E0,-1.397249997E-1,2.469161987E0,9.584794044E0
4.514030484E0,-1.373295039E-1,2.454788923E0,9.565629959E0
4.519081630E0,-1.301430017E-1,2.426043034E0,9.510533333E0
4.524132776E0,-1.421204954E-1,2.435625076E0,9.534488678E0
4.529183922E0,-1.517024934E-1,2.430834055E0,9.548861504E0
4.534240224E0,-1.517024934E-1,2.454788923E0,9.546465874E0
4.539291370E0,-1.708665043E-1,2.459579945E0,9.546465874E0
4.544342515E0,-1.636800021E-1,2.473953009E0,9.591980934E0
4.549393661E0,-1.253519952E-1,2.512280941E0,9.635099411E0
4.554444807E0,-1.133745015E-1,2.524258614E0,9.639890671E0
4.559495953E0,-9.181500226E-2,2.495512486E0,9.587189674E0
4.564542828E0,-5.827800184E-2,2.505094528E0,9.582398415E0
4.569593974E0,-7.983750105E-2,2.485930443E0,9.603958130E0
4.574645120E0,-1.061879992E-1,2.457184553E0,9.603958130E0
4.579696265E0,-9.421049803E-2,2.449997902E0,9.577607155E0
4.584747411E0,-1.181655005E-1,2.452393532E0,9.606353760E0
4.589798557E0,-1.732620001E-1,2.449997902E0,9.625517845E0
4.594880901E0,-1.852394938E-1,2.418856382E0,9.656659126E0
4.599932047E0,-1.301430017E-1,2.430834055E0,9.661450386E0
4.604983140E0,-8.462850004E-2,2.442811489E0,9.690196037E0
4.610034286E0,-1.755449921E-2,2.449997902E0,9.728524208E0
4.615085432E0,6.400499959E-3,2.445207119E0,9.692591667E0
4.620136578E0,4.951950163E-2,2.478744030E0,9.651867867E0
4.625163192E0,9.503400326E-2,2.488326073E0,9.560838699E0
4.630214338E0,1.213845015E-1,2.476348400E0,9.539279938E0
4.635265484E0,6.389249861E-2,2.485930443E0,9.539279938E0
4.640316630E0,2.796000056E-2,2.471557617E0,9.479392052E0
4.645367776E0,-2.474099956E-2,2.440416098E0,9.412318230E0
4.650418870E0,-9.900149703E-2,2.404483557E0,9.381176949E0
4.655457203E0,-1.013970003E-1,2.361364603E0,9.364407539E0
4.660508349E0,-1.277475059E-1,2.313454390E0,9.385967255E0
4.665559495E0,-1.588889956E-1,2.296685934E0,9.371594429E0
4.670610640E0,-2.403360009E-1,2.284708500E0,9.429086685E0
4.675661786E0,-2.355449945E-1,2.255962610E0,9.486578941E0
4.680712932E0,-2.259629965E-1,2.253566980E0,9.553652763E0
4.685771109E0,-2.187764943E-1,2.272731066E0,9.627913475E0
4.690822255E0,-1.732620001E-1,2.272731066E0,9.618330956E0
4.695873401E0,-6.306900084E-2,2.279917479E0,9.687800407E0
4.700924547E0,-1.276350021E-2,2.282313108E0,9.683009148E0
4.705975692E0,3.993749991E-2,2.323036432E0,9.683009148E0
4.711026838E0,5.670600012E-2,2.373342037E0,9.699777603E0
4.716081526E0,9.263850003E-2,2.421252012E0,9.694987297E0
4.721132672E0,8.305650204E-2,2.430834055E0,9.706964493E0
4.726183817E0,5.670600012E-2,2.457184553E0,9.675823212E0
4.731234963E0,3.754200041E-2,2.449997902E0,9.673427582E0
4.736286109E0,2.796000056E-2,2.397296906E0,9.615935326E0
4.741337255E0,1.609500032E-3,2.402087927E0,9.563234329E0
4.746387099E0,-4.150950164E-2,2.375737429E0,9.484183311E0
4.751438297E0,-5.109149963E-2,2.356573582E0,9.450646400E0
4.756489442E0,-1.301430017E-1,2.337409496E0,9.479392052E0
4.761540536E0,-1.469115019E-1,2.339804888E0,9.467414856E0
4.766591682E0,-1.325384974E-1,2.354177952E0,9.448250771E0
4.771642828E0,-1.205610037E-1,2.385319471E0,9.431482315E0
4.776700901E0,-6.785999984E-2,2.373342037E0,9.385967255E0
4.781752047E0,-2.713650092E-2,2.349386930E0,9.350034714E0
4.786803192E0,-7.972500287E-3,2.378133059E0,9.350034714E0
4.791854338E0,1.609500032E-3,2.409274578E0,9.342848778E0
4.796905484E0,1.358699985E-2,2.418856382E0,9.350034714E0
4.801956630E0,4.233299941E-2,2.435625076E0,9.352430344E0
4.807003974E0,7.586999983E-2,2.466766596E0,9.330870628E0
4.812055120E0,1.213845015E-1,2.493117094E0,9.342848778E0
4.817106265E0,1.549215019E-1,2.483535051E0,9.364407539E0
4.822157411E0,8.784750104E-2,2.514676571E0,9.383571625E0
4.827208557E0,1.141979992E-1,2.483535051E0,9.419504166E0
4.832259651E0,7.347449660E-2,2.459579945E0,9.453041077E0
4.837310849E0,-5.576999858E-3,2.433229446E0,9.488973618E0
4.842361995E0,-3.432299942E-2,2.382924080E0,9.572816849E0
4.847413140E0,-7.983750105E-2,2.325432062E0,9.627913475E0
4.852464286E0,-9.421049803E-2,2.330223083E0,9.683009148E0
4.857515432E0,-1.013970003E-1,2.303872585E0,9.702173233E0
4.862566578E0,-1.181655005E-1,2.318245411E0,9.709360123E0
4.867606682E0,-1.085835025E-1,2.330223083E0,9.711755753E0
4.872657828E0,-9.181500226E-2,2.318245411E0,9.723732948E0
4.877708974E0,-1.013970003E-1,2.330223083E0,9.644681931E0
4.882760172E0,-1.061879992E-1,2.342200518E0,9.673427582E0
4.887811265E0,-1.205610037E-1,2.358968973E0,9.620726585E0
4.892862411E0,-1.612845063E-1,2.354177952E0,9.556048393E0
4.897923140E0,-1.708665043E-1,2.380528450E0,9.539279938E0
4.902974286E0,-1.804485023E-1,2.382924080E0,9.474600792E0
4.908025432E0,-1.373295039E-1,2.411669970E0,9.450646400E0
4.913076578E0,-1.037925035E-1,2.438020468E0,9.395549774E0
4.918127724E0,-5.348699912E-2,2.473953009E0,9.347639084E0
4.923178870E0,-7.859999896E-4,2.476348400E0,9.314102173E0
4.928230015E0,2.556449920E-2,2.485930443E0,9.340453148E0
4.933281213E0,2.316899970E-2,2.495512486E0,9.282960892E0
4.938332307E0,-5.576999858E-3,2.500303507E0,9.294938087E0
4.943383505E0,-4.150950164E-2,2.490721464E0,9.290147781E0
4.948434599E0,-4.150950164E-2,2.502698898E0,9.292543411E0
4.953485745E0,-5.109149963E-2,2.485930443E0,9.311706543E0
4.958527932E0,-6.306900084E-2,2.473953009E0,9.338057518E0
4.963579078E0,-6.546449661E-2,2.466766596E0,9.395549774E0
4.968630224E0,-7.265099883E-2,2.466766596E0,9.467414856E0
4.973681370E0,-7.504650205E-2,2.478744030E0,9.560838699E0
4.978732515E0,-7.504650205E-2,2.471557617E0,9.620726585E0
4.983783661E0,-7.025550306E-2,2.481139421E0,9.675823212E0
4.988866526E0,-8.941949904E-2,2.464370966E0,9.692591667E0
4.993917672E0,-1.515899971E-2,2.469161987E0,9.740501404E0
4.998968870E0,-2.953200042E-2,2.481139421E0,9.786016464E0
5.004020015E0,-5.576999858E-3,2.473953009E0,9.790806770E0
5.009071161E0,2.316899970E-2,2.502698898E0,9.807575226E0
5.014122255E0,6.149699911E-2,2.478744030E0,9.814762115E0
5.019151734E0,6.628800184E-2,2.488326073E0,9.797993660E0
5.024202880E0,1.477349997E-1,2.505094528E0,9.778829575E0
5.029254026E0,1.501304954E-1,2.507489920E0,9.766852379E0
5.034305172E0,1.189889982E-1,2.517071962E0,9.718941689E0
5.039356317E0,5.910149962E-2,2.531445026E0,9.754874229E0
5.044407463E0,2.796000056E-2,2.533840418E0,9.671031952E0
5.049450640E0,-1.515899971E-2,2.536236048E0,9.601562500E0
5.054501786E0,8.795999922E-3,2.531445026E0,9.527301788E0
5.059552932E0,6.868349761E-2,2.519467592E0,9.453041077E0
5.064604078E0,1.261754930E-1,2.497908115E0,9.373990059E0
5.069655224E0,1.237799972E-1,2.493117094E0,9.326080322E0
5.074706370E0,1.094070002E-1,2.524258614E0,9.292543411E0
5.079765172E0,2.077350020E-2,2.529049397E0,9.285356522E0
5.084816370E0,2.316899970E-2,2.541027069E0,9.268588066E0
5.089867620E0,-1.036799978E-2,2.555399895E0,9.266192436E0
5.094918870E0,-3.671849892E-2,2.555399895E0,9.268588066E0
5.099970120E0,1.609500032E-3,2.545818090E0,9.261401176E0
5.105021317E0,6.400499959E-3,2.555399895E0,9.294938087E0
5.110119703E0,6.389249861E-2,2.512280941E0,9.328475952E0
5.115170953E0,8.784750104E-2,2.476348400E0,9.373990059E0
5.120222203E0,7.347449660E-2,2.433229446E0,9.426691055E0
5.125273453E0,-1.515899971E-2,2.406878948E0,9.405131340E0
5.130324703E0,-8.941949904E-2,2.366155386E0,9.436272621E0
5.135375953E0,-1.708665043E-1,2.337409496E0,9.455436707E0
5.140371526E0,-2.379405051E-1,2.315850019E0,9.465019226E0
5.145422724E0,-2.235675007E-1,2.332618475E0,9.448250771E0
5.150473974E0,-2.139855027E-1,2.332618475E0,9.433877945E0
5.155525224E0,-1.972170025E-1,2.327827454E0,9.397945404E0
5.160576474E0,-1.684709936E-1,2.351782560E0,9.424295425E0
5.165627724E0,-1.061879992E-1,2.332618475E0,9.436272621E0
5.170677099E0,-6.306900084E-2,2.358968973E0,9.421899796E0
5.175728349E0,-7.025550306E-2,2.380528450E0,9.443459511E0
5.180779547E0,-6.306900084E-2,2.368551016E0,9.476996422E0
5.185830797E0,-6.067350134E-2,2.418856382E0,9.479392052E0
5.190882047E0,-3.671849892E-2,2.428438425E0,9.541674614E0
5.195933297E0,6.400499959E-3,2.485930443E0,9.580002785E0
5.200997151E0,3.275100142E-2,2.488326073E0,9.601562500E0
5.206048349E0,1.119150035E-2,2.497908115E0,9.556048393E0
5.211099599E0,1.609500032E-3,2.521862984E0,9.544070244E0
5.216150849E0,-1.995000057E-2,2.507489920E0,9.512928963E0
5.221202099E0,-7.983750105E-2,2.490721464E0,9.486578941E0
5.226253297E0,-1.061879992E-1,2.466766596E0,9.441063881E0
5.231300120E0,-1.085835025E-1,2.421252012E0,9.393154144E0
5.236351317E0,-1.205610037E-1,2.399692535E0,9.352430344E0
5.241402567E0,-1.157699972E-1,2.387715101E0,9.342848778E0
5.246453817E0,-9.900149703E-2,2.363759995E0,9.376385689E0
5.251505067E0,-1.157699972E-1,2.378133059E0,9.364407539E0
5.256556265E0,-8.223299682E-2,2.361364603E0,9.381176949E0
5.261610067E0,-4.869600013E-2,2.399692535E0,9.438668251E0
5.266661265E0,-2.953200042E-2,2.457184553E0,9.472205162E0
5.271712515E0,-5.588249862E-2,2.476348400E0,9.529697418E0
5.276763765E0,-3.432299942E-2,2.445207119E0,9.589585304E0
5.281815015E0,-6.546449661E-2,2.433229446E0,9.683009148E0
5.286866213E0,-1.133745015E-1,2.445207119E0,9.728524208E0
5.291918297E0,-1.253519952E-1,2.414065599E0,9.766852379E0
5.296969599E0,-1.325384974E-1,2.397296906E0,9.850694656E0
5.302020797E0,-8.462850004E-2,2.404483557E0,9.831530571E0
5.307072047E0,-4.869600013E-2,2.418856382E0,9.824343681E0
5.312123297E0,-4.390500113E-2,2.426043034E0,9.841112137E0
5.317174547E0,-3.192749992E-2,2.421252012E0,9.831530571E0
5.322229338E0,-1.036799978E-2,2.447602510E0,9.754874229E0
5.327280536E0,4.004999995E-3,2.471557617E0,9.678218842E0
5.332331786E0,-1.276350021E-2,2.519467592E0,9.556048393E0
5.337383036E0,-3.181499895E-3,2.531445026E0,9.474600792E0
5.342434286E0,2.556449920E-2,2.550609112E0,9.462623596E0
5.347485536E0,4.472849891E-2,2.531445026E0,9.376385689E0
5.352519911E0,9.742949903E-2,2.550609112E0,9.357221603E0
5.357571161E0,1.405484974E-1,2.591332436E0,9.373990059E0
5.362622359E0,1.501304954E-1,2.584146023E0,9.357221603E0
5.367673609E0,1.549215019E-1,2.557795525E0,9.323684692E0
5.372724859E0,9.742949903E-2,2.569772959E0,9.314102173E0
5.377776109E0,9.503400326E-2,2.538631439E0,9.338057518E0
5.382831474E0,7.826550305E-2,2.524258614E0,9.342848778E0
5.387882724E0,1.358699985E-2,2.493117094E0,9.362012863E0
5.392933974E0,-7.972500287E-3,2.464370966E0,9.362012863E0
5.397985224E0,-5.588249862E-2,2.461975574E0,9.402735710E0
5.403036422E0,-9.900149703E-2,2.426043034E0,9.469809532E0
5.408087672E0,-1.277475059E-1,2.406878948E0,9.460227966E0
5.413145484E0,-1.469115019E-1,2.392505884E0,9.512928963E0
5.418196734E0,-1.612845063E-1,2.402087927E0,9.532093048E0
5.423247984E0,-1.493069977E-1,2.366155386E0,9.553652763E0
5.428299234E0,-1.037925035E-1,2.373342037E0,9.544070244E0
5.433350432E0,-5.588249862E-2,2.382924080E0,9.577607155E0
5.438401682E0,-5.109149963E-2,2.406878948E0,9.587189674E0
5.443422411E0,-6.306900084E-2,2.375737429E0,9.582398415E0
5.448473661E0,-6.785999984E-2,2.346991539E0,9.627913475E0
5.453524859E0,-1.157699972E-1,2.404483557E0,9.601562500E0
5.458576161E0,-1.109789982E-1,2.457184553E0,9.623122215E0
5.463627359E0,-7.983750105E-2,2.459579945E0,9.620726585E0
5.468678609E0,-8.462850004E-2,2.447602510E0,9.644681931E0
5.473744807E0,-4.150950164E-2,2.454788923E0,9.635099411E0
5.478796057E0,-2.953200042E-2,2.490721464E0,9.623122215E0
5.483847307E0,-5.576999858E-3,2.459579945E0,9.603958130E0
5.488898557E0,-5.576999858E-3,2.423647404E0,9.584794044E0
5.493949755E0,8.795999922E-3,2.464370966E0,9.536884308E0
5.499001005E0,1.358699985E-2,2.488326073E0,9.491369247E0
5.504062932E0,-2.474099956E-2,2.471557617E0,9.457832336E0
5.509114182E0,4.472849891E-2,2.509885550E0,9.443459511E0
5.514165432E0,9.503400326E-2,2.526654005E0,9.364407539E0
5.519216682E0,1.309664994E-1,2.572168589E0,9.381176949E0
5.524267880E0,1.788765043E-1,2.579355001E0,9.424295425E0
5.529319130E0,1.501304954E-1,2.572168589E0,9.462623596E0
5.534379130E0,1.285710037E-1,2.569772959E0,9.414713860E0
5.539430328E0,1.429439932E-1,2.541027069E0,9.431482315E0
5.544481578E0,1.261754930E-1,2.548213482E0,9.493764877E0
5.549532828E0,1.141979992E-1,2.536236048E0,9.503347397E0
5.554584078E0,5.670600012E-2,2.521862984E0,9.508137703E0
5.559635276E0,1.598249935E-2,2.502698898E0,9.505742073E0
5.564675224E0,-2.953200042E-2,2.481139421E0,9.515324593E0
5.569726474E0,-6.785999984E-2,2.445207119E0,9.541674614E0
5.574777724E0,-1.277475059E-1,2.414065599E0,9.577607155E0
5.579828974E0,-1.349339932E-1,2.378133059E0,9.577607155E0
5.584880172E0,-1.684709936E-1,2.335014105E0,9.577607155E0
5.589931422E0,-1.397249997E-1,2.337409496E0,9.611144066E0
5.594983817E0,-1.061879992E-1,2.311058998E0,9.591980934E0
5.600035067E0,-6.306900084E-2,2.346991539E0,9.587189674E0
5.605086317E0,-2.474099956E-2,2.361364603E0,9.584794044E0
5.610137567E0,-2.713650092E-2,2.397296906E0,9.546465874E0
5.615188765E0,-1.995000057E-2,2.435625076E0,9.524906158E0
5.620240015E0,-3.192749992E-2,2.481139421E0,9.539279938E0
5.625300172E0,-1.276350021E-2,2.521862984E0,9.508137703E0
5.630351370E0,1.598249935E-2,2.507489920E0,9.474600792E0
5.635402620E0,3.754200041E-2,2.485930443E0,9.441063881E0
5.640453870E0,5.431050062E-2,2.481139421E0,9.395549774E0
5.645505120E0,4.951950163E-2,2.481139421E0,9.395549774E0
5.650556317E0,5.670600012E-2,2.447602510E0,9.371594429E0
5.655597984E0,-1.755449921E-2,2.399692535E0,9.362012863E0
5.660649234E0,-6.067350134E-2,2.392505884E0,9.330870628E0
5.665700432E0,-9.181500226E-2,2.392505884E0,9.354825974E0
5.670751682E0,-1.061879992E-1,2.392505884E0,9.390758514E0
5.675802932E0,-1.109789982E-1,2.370946407E0,9.426691055E0
5.680854182E0,-1.301430017E-1,2.382924080E0,9.443459511E0
5.685908088E0,-1.181655005E-1,2.394901514E0,9.529697418E0
5.690959338E0,-9.181500226E-2,2.390110493E0,9.536884308E0
5.696010536E0,-8.941949904E-2,2.402087927E0,9.565629959E0
5.701061786E0,-5.588249862E-2,2.414065599E0,9.587189674E0
5.706113036E0,-5.109149963E-2,2.394901514E0,9.613539696E0
5.711164234E0,-3.911399841E-2,2.397296906E0,9.608749390E0
5.716204547E0,-2.953200042E-2,2.404483557E0,9.580002785E0
5.721255745E0,-5.348699912E-2,2.421252012E0,9.596771240E0
5.726306995E0,-6.546449661E-2,2.438020468E0,9.575211525E0
5.731358245E0,-7.504650205E-2,2.416460991E0,9.558443069E0
5.736409495E0,-1.133745015E-1,2.399692535E0,9.580002785E0
5.741460745E0,-1.301430017E-1,2.363759995E0,9.572816849E0
5.746516422E0,-1.684709936E-1,2.394901514E0,9.570421219E0
5.751567620E0,-1.804485023E-1,2.380528450E0,9.572816849E0
5.756618870E0,-1.732620001E-1,2.399692535E0,9.577607155E0
5.761670120E0,-1.205610037E-1,2.435625076E0,9.546465874E0
5.766721370E0,-7.744199783E-2,2.423647404E0,9.575211525E0
5.771772567E0,-2.953200042E-2,2.464370966E0,9.570421219E0
5.776826370E0,4.712399840E-2,2.507489920E0,9.570421219E0
5.781877567E0,8.305650204E-2,2.514676571E0,9.582398415E0
5.786928817E0,1.477349997E-1,2.562586546E0,9.563234329E0
5.791980067E0,1.309664994E-1,2.581750393E0,9.515324593E0
5.797031317E0,8.545199782E-2,2.576959610E0,9.505742073E0
5.802082515E0,5.431050062E-2,2.591332436E0,9.505742073E0
5.807129130E0,8.305650204E-2,2.584146023E0,9.486578941E0
5.812180328E0,9.263850003E-2,2.569772959E0,9.469809532E0
5.817231578E0,4.233299941E-2,2.550609112E0,9.460227966E0
5.822282828E0,2.316899970E-2,2.514676571E0,9.443459511E0
5.827334078E0,-2.474099956E-2,2.509885550E0,9.400340080E0
5.832385276E0,-6.067350134E-2,2.488326073E0,9.369198799E0
5.837442203E0,-5.827800184E-2,2.461975574E0,9.306916237E0
5.842493453E0,-9.181500226E-2,2.452393532E0,9.321289062E0
5.847544651E0,-7.025550306E-2,2.459579945E0,9.354825974E0
5.852595901E0,-4.150950164E-2,2.490721464E0,9.342848778E0
5.857647151E0,-3.911399841E-2,2.500303507E0,9.323684692E0
5.862698349E0,-5.576999858E-3,2.478744030E0,9.383571625E0
5.867758297E0,2.556449920E-2,2.490721464E0,9.421899796E0
5.872809547E0,4.233299941E-2,2.488326073E0,9.433877945E0
5.877860745E0,5.191500112E-2,2.497908115E0,9.510533333E0
5.882911995E0,3.993749991E-2,2.507489920E0,9.522510529E0
5.887963245E0,1.119150035E-2,2.505094528E0,9.546465874E0
5.893014495E0,1.609500032E-3,2.514676571E0,9.551257133E0
5.898043036E0,2.556449920E-2,2.521862984E0,9.630308151E0
5.903094234E0,1.598249935E-2,2.483535051E0,9.675823212E0
5.908145484E0,-1.755449921E-2,2.447602510E0,9.694987297E0
5.913196734E0,-4.150950164E-2,2.411669970E0,9.709360123E0
5.918247984E0,-7.504650205E-2,2.332618475E0,9.740501404E0
5.923299234E0,-6.067350134E-2,2.346991539E0,9.776433945E0
5.928360067E0,-7.504650205E-2,2.330223083E0,9.836321831E0
5.933411265E0,-1.013970003E-1,2.339804888E0,9.865067482E0
5.938462515E0,-1.277475059E-1,2.330223083E0,9.874649048E0
5.943513765E0,-8.702400327E-2,2.318245411E0,9.874649048E0
5.948565015E0,-4.630050063E-2,2.351782560E0,9.896208763E0
5.953616213E0,-5.827800184E-2,2.315850019E0,9.814762115E0
5.958687515E0,-1.995000057E-2,2.318245411E0,9.786016464E0
5.963738765E0,-3.181499895E-3,2.349386930E0,9.757269859E0
5.968789963E0,-7.972500287E-3,2.337409496E0,9.726128578E0
5.973841213E0,-3.432299942E-2,2.406878948E0,9.671031952E0
5.978892463E0,-1.276350021E-2,2.435625076E0,9.625517845E0
5.983943713E0,-2.474099956E-2,2.449997902E0,9.615935326E0
5.988986057E0,3.275100142E-2,2.476348400E0,9.580002785E0
5.994037255E0,6.149699911E-2,2.485930443E0,9.560838699E0
5.999088505E0,4.712399840E-2,2.469161987E0,9.508137703E0
6.004139755E0,5.910149962E-2,2.471557617E0,9.467414856E0
6.009191005E0,9.503400326E-2,2.459579945E0,9.424295425E0
6.014242203E0,5.910149962E-2,2.440416098E0,9.366803169E0
6.019291474E0,1.609500032E-3,2.423647404E0,9.311706543E0
6.024342672E0,6.400499959E-3,2.402087927E0,9.338057518E0
6.029393922E0,-4.150950164E-2,2.380528450E0,9.376385689E0
6.034445172E0,-5.827800184E-2,2.387715101E0,9.330870628E0
6.039496422E0,-7.504650205E-2,2.402087927E0,9.309311867E0
6.044547672E0,-1.301430017E-1,2.373342037E0,9.318893433E0
6.049608297E0,-1.684709936E-1,2.361364603E0,9.383571625E0
6.054659495E0,-1.636800021E-1,2.380528450E0,9.366803169E0
6.059710745E0,-1.469115019E-1,2.373342037E0,9.323684692E0
6.064761995E0,-9.421049803E-2,2.363759995E0,9.340453148E0
6.069813245E0,-6.546449661E-2,2.349386930E0,9.328475952E0
6.074864495E0,-1.755449921E-2,2.330223083E0,9.278169632E0
6.079906630E0,-3.432299942E-2,2.354177952E0,9.187141418E0
6.084957828E0,-5.109149963E-2,2.375737429E0,9.215887070E0
6.090009078E0,-5.109149963E-2,2.394901514E0,9.215887070E0
6.095060276E0,-6.785999984E-2,2.406878948E0,9.203909874E0
6.100111526E0,-1.037925035E-1,2.394901514E0,9.244632721E0
6.105162724E0,-1.373295039E-1,2.380528450E0,9.316497803E0
6.110210380E0,-1.708665043E-1,2.409274578E0,9.371594429E0
6.115261578E0,-1.972170025E-1,2.390110493E0,9.443459511E0
6.120312828E0,-1.756574959E-1,2.414065599E0,9.527301788E0
6.125364026E0,-1.469115019E-1,2.409274578E0,9.560838699E0
6.130415276E0,-7.025550306E-2,2.416460991E0,9.618330956E0
6.135466474E0,2.077350020E-2,2.440416098E0,9.635099411E0
6.140512567E0,4.951950163E-2,2.445207119E0,9.618330956E0
6.145563765E0,9.503400326E-2,2.459579945E0,9.582398415E0
6.150615015E0,1.237799972E-1,2.488326073E0,9.591980934E0
6.155666213E0,8.305650204E-2,2.466766596E0,9.572816849E0
6.160717463E0,5.910149962E-2,2.473953009E0,9.556048393E0
6.165768661E0,3.514650092E-2,2.507489920E0,9.539279938E0
6.170825797E0,2.316899970E-2,2.497908115E0,9.481787682E0
6.175876995E0,5.191500112E-2,2.495512486E0,9.486578941E0
6.180928245E0,5.191500112E-2,2.533840418E0,9.462623596E0
6.185979442E0,2.556449920E-2,2.509885550E0,9.481787682E0
6.191030640E0,8.795999922E-3,2.490721464E0,9.512928963E0
6.196081890E0,-1.036799978E-2,2.447602510E0,9.455436707E0
6.201125328E0,-3.432299942E-2,2.447602510E0,9.445855141E0
6.206176526E0,-7.025550306E-2,2.399692535E0,9.534488678E0
6.211227776E0,-1.445160061E-1,2.339804888E0,9.498556137E0
6.216278974E0,-1.804485023E-1,2.349386930E0,9.520115852E0
6.221330224E0,-1.780530065E-1,2.358968973E0,9.582398415E0
6.226381422E0,-1.900305003E-1,2.335014105E0,9.556048393E0
6.231429755E0,-2.067990005E-1,2.332618475E0,9.565629959E0
6.236480953E0,-2.187764943E-1,2.349386930E0,9.603958130E0
6.241532203E0,-2.666864991E-1,2.366155386E0,9.594375610E0
6.246583401E0,-2.523134947E-1,2.351782560E0,9.563234329E0
6.251634651E0,-2.882460058E-1,2.356573582E0,9.560838699E0
6.256685849E0,-2.858504951E-1,2.361364603E0,9.532093048E0
6.261798870E0,-2.978279889E-1,2.378133059E0,9.479392052E0
6.266850120E0,-2.594999969E-1,2.356573582E0,9.436272621E0
6.271901370E0,-2.642909884E-1,2.332618475E0,9.419504166E0
6.276952567E0,-1.804485023E-1,2.342200518E0,9.421899796E0
6.282003817E0,-1.325384974E-1,2.380528450E0,9.395549774E0
6.287055015E0,-1.061879992E-1,2.394901514E0,9.388362885E0
6.292053870E0,-3.671849892E-2,2.402087927E0,9.450646400E0
6.297105067E0,-1.755449921E-2,2.392505884E0,9.517720222E0
6.302156317E0,-2.953200042E-2,2.445207119E0,9.541674614E0
6.307207515E0,-4.869600013E-2,2.394901514E0,9.618330956E0
6.312258765E0,-1.995000057E-2,2.404483557E0,9.632703781E0
6.317309963E0,-1.085835025E-1,2.423647404E0,9.613539696E0
6.322363349E0,-1.612845063E-1,2.409274578E0,9.687800407E0
6.327414547E0,-1.780530065E-1,2.404483557E0,9.668636322E0
6.332465797E0,-1.708665043E-1,2.387715101E0,9.630308151E0
6.337516995E0,-1.277475059E-1,2.366155386E0,9.615935326E0
6.342568245E0,-9.181500226E-2,2.368551016E0,9.563234329E0
6.347619442E0,-7.265099883E-2,2.382924080E0,9.524906158E0
6.352673765E0,-5.348699912E-2,2.394901514E0,9.465019226E0
6.357724963E0,-6.546449661E-2,2.421252012E0,9.409922600E0
6.362776213E0,-9.421049803E-2,2.466766596E0,9.407526970E0
6.367827411E0,-7.025550306E-2,2.512280941E0,9.395549774E0
6.372878661E0,-1.755449921E-2,2.514676571E0,9.397945404E0
6.377929859E0,6.400499959E-3,2.569772959E0,9.407526970E0
6.382961265E0,8.545199782E-2,2.584146023E0,9.441063881E0
6.388012463E0,9.982500225E-2,2.550609112E0,9.448250771E0
6.393063713E0,4.951950163E-2,2.536236048E0,9.469809532E0
6.398114911E0,6.628800184E-2,2.502698898E0,9.486578941E0
6.403166109E0,1.837800071E-2,2.440416098E0,9.522510529E0
6.408217359E0,-1.755449921E-2,2.421252012E0,9.575211525E0
6.413255953E0,-7.744199783E-2,2.385319471E0,9.606353760E0
6.418307151E0,-1.349339932E-1,2.373342037E0,9.651867867E0
6.423358401E0,-1.421204954E-1,2.327827454E0,9.726128578E0
6.428409599E0,-1.828439981E-1,2.332618475E0,9.709360123E0
6.433460849E0,-2.067990005E-1,2.294290543E0,9.716546059E0
6.438512047E0,-2.044035047E-1,2.299081564E0,9.697382927E0
6.443597620E0,-2.403360009E-1,2.301476955E0,9.668636322E0
6.448648870E0,-2.163809985E-1,2.306267977E0,9.663845062E0
6.453700120E0,-1.852394938E-1,2.330223083E0,9.644681931E0
6.458751317E0,-1.517024934E-1,2.327827454E0,9.623122215E0
6.463802515E0,-1.229564995E-1,2.325432062E0,9.623122215E0
6.468853765E0,-9.421049803E-2,2.337409496E0,9.647076607E0
6.473896370E0,-5.827800184E-2,2.354177952E0,9.654263496E0
6.478947620E0,-6.546449661E-2,2.380528450E0,9.639890671E0
6.483998817E0,-6.306900084E-2,2.399692535E0,9.661450386E0
6.489050067E0,-5.348699912E-2,2.416460991E0,9.661450386E0
6.494101265E0,-6.785999984E-2,2.418856382E0,9.668636322E0
6.499152463E0,-7.744199783E-2,2.421252012E0,9.659054756E0
6.504212567E0,-9.660600126E-2,2.440416098E0,9.606353760E0
6.509263765E0,-7.025550306E-2,2.411669970E0,9.532093048E0
6.514315015E0,-5.109149963E-2,2.418856382E0,9.493764877E0
6.519366213E0,-7.744199783E-2,2.406878948E0,9.457832336E0
6.524417463E0,-7.744199783E-2,2.368551016E0,9.381176949E0
6.529468661E0,-7.744199783E-2,2.399692535E0,9.323684692E0
6.534516630E0,-8.941949904E-2,2.392505884E0,9.309311867E0
6.539567828E0,-1.205610037E-1,2.385319471E0,9.239842415E0
6.544619078E0,-1.517024934E-1,2.380528450E0,9.225468636E0
6.549670328E0,-1.229564995E-1,2.387715101E0,9.256610870E0
6.554721526E0,-1.037925035E-1,2.385319471E0,9.270983696E0
6.559772724E0,-7.744199783E-2,2.406878948E0,9.311706543E0
6.564807828E0,-7.025550306E-2,2.423647404E0,9.381176949E0
6.569859078E0,-7.983750105E-2,2.404483557E0,9.457832336E0
6.574910276E0,-7.504650205E-2,2.382924080E0,9.517720222E0
6.579961526E0,-8.941949904E-2,2.375737429E0,9.565629959E0
6.585012724E0,-6.785999984E-2,2.382924080E0,9.618330956E0
6.590063974E0,-9.421049803E-2,2.363759995E0,9.654263496E0
6.595111474E0,-1.157699972E-1,2.320641041E0,9.654263496E0
6.600162672E0,-7.744199783E-2,2.330223083E0,9.663845062E0
6.605213922E0,-9.660600126E-2,2.361364603E0,9.752478600E0
6.610265120E0,-1.013970003E-1,2.349386930E0,9.740501404E0
6.615316370E0,-1.037925035E-1,2.346991539E0,9.764456749E0
6.620367567E0,-1.229564995E-1,2.335014105E0,9.762061119E0
6.625433765E0,-1.445160061E-1,2.349386930E0,9.738105774E0
6.630485015E0,-1.684709936E-1,2.358968973E0,9.709360123E0
6.635536265E0,-1.756574959E-1,2.382924080E0,9.666240692E0
6.640587463E0,-1.061879992E-1,2.390110493E0,9.630308151E0
6.645638713E0,-6.546449661E-2,2.399692535E0,9.560838699E0
6.650689911E0,8.795999922E-3,2.409274578E0,9.522510529E0
6.655738245E0,1.837800071E-2,2.411669970E0,9.436272621E0
6.660789442E0,2.077350020E-2,2.435625076E0,9.407526970E0
6.665840692E0,3.035550006E-2,2.461975574E0,9.326080322E0
6.670891890E0,3.993749991E-2,2.485930443E0,9.297333717E0
6.675943140E0,3.275100142E-2,2.500303507E0,9.263796806E0
6.680994338E0,6.400499959E-3,2.512280941E0,9.244632721E0
6.686045953E0,-1.515899971E-2,2.490721464E0,9.194327354E0
6.691097151E0,-6.306900084E-2,2.481139421E0,9.187141418E0
6.696148401E0,-8.223299682E-2,2.478744030E0,9.263796806E0
6.701199599E0,-1.013970003E-1,2.469161987E0,9.335661888E0
6.706250849E0,-7.744199783E-2,2.459579945E0,9.421899796E0
6.711302047E0,-5.348699912E-2,2.428438425E0,9.541674614E0
6.716357359E0,-2.953200042E-2,2.449997902E0,9.601562500E0
6.721408557E0,-1.036799978E-2,2.442811489E0,9.711755753E0
6.726459807E0,6.400499959E-3,2.440416098E0,9.788411140E0
6.731511005E0,-5.576999858E-3,2.414065599E0,9.850694656E0
6.736562203E0,-7.972500287E-3,2.428438425E0,9.922559738E0
6.741613453E0,-2.474099956E-2,2.428438425E0,9.965678215E0
6.746647776E0,-5.109149963E-2,2.433229446E0,9.972865105E0
6.751698974E0,-6.785999984E-2,2.445207119E0,9.982446671E0
6.756750224E0,-9.421049803E-2,2.416460991E0,1.000161076E1
6.761801422E0,-7.025550306E-2,2.411669970E0,9.965678215E0
6.766852672E0,-6.785999984E-2,2.404483557E0,9.956096649E0
6.771903870E0,-4.869600013E-2,2.397296906E0,9.924955368E0
6.776954026E0,-1.036799978E-2,2.397296906E0,9.824343681E0
6.782005224E0,-3.911399841E-2,2.380528450E0,9.723732948E0
6.787056474E0,-9.421049803E-2,2.382924080E0,9.618330956E0
6.792107724E0,-1.061879992E-1,2.368551016E0,9.568025589E0
6.797158922E0,-1.109789982E-1,2.380528450E0,9.472205162E0
6.802210172E0,-1.133745015E-1,2.390110493E0,9.412318230E0
6.807357932E0,-8.941949904E-2,2.416460991E0,9.364407539E0
6.812409130E0,-6.785999984E-2,2.409274578E0,9.321289062E0
6.817460380E0,-5.827800184E-2,2.423647404E0,9.304520607E0
6.822511578E0,-7.504650205E-2,2.447602510E0,9.266192436E0
6.827562828E0,-6.546449661E-2,2.418856382E0,9.321289062E0
6.832614026E0,-8.702400327E-2,2.385319471E0,9.330870628E0
6.837576578E0,-8.223299682E-2,2.404483557E0,9.316497803E0
6.842627776E0,-1.229564995E-1,2.356573582E0,9.373990059E0
6.847679026E0,-1.133745015E-1,2.351782560E0,9.424295425E0
6.852730224E0,-9.181500226E-2,2.306267977E0,9.436272621E0
6.857781474E0,-1.277475059E-1,2.265544415E0,9.455436707E0
6.862832672E0,-1.277475059E-1,2.263149023E0,9.474600792E0
6.867883192E0,-1.373295039E-1,2.246380568E0,9.448250771E0
6.872934390E0,-1.373295039E-1,2.236798525E0,9.486578941E0
6.877985640E0,-1.804485023E-1,2.263149023E0,9.491369247E0
6.883036838E0,-1.924259961E-1,2.232007504E0,9.424295425E0
6.888088088E0,-1.684709936E-1,2.224821091E0,9.421899796E0
6.893139286E0,-1.540980041E-1,2.229612112E0,9.405131340E0
6.898191057E0,-1.397249997E-1,2.224821091E0,9.383571625E0
6.903242255E0,-1.181655005E-1,2.255962610E0,9.407526970E0
6.908293505E0,-1.277475059E-1,2.255962610E0,9.385967255E0
6.913344703E0,-1.397249997E-1,2.279917479E0,9.347639084E0
6.918395953E0,-1.493069977E-1,2.272731066E0,9.328475952E0
6.923447151E0,-1.229564995E-1,2.270335436E0,9.352430344E0
6.928532567E0,-1.564934999E-1,2.253566980E0,9.314102173E0
6.933583765E0,-2.020079941E-1,2.258358002E0,9.302124977E0
6.938635015E0,-2.044035047E-1,2.272731066E0,9.314102173E0
6.943686213E0,-1.804485023E-1,2.234402895E0,9.333266258E0
6.948737463E0,-1.684709936E-1,2.248775959E0,9.397945404E0
6.953788661E0,-1.517024934E-1,2.258358002E0,9.460227966E0
6.958804651E0,-1.684709936E-1,2.227216482E0,9.500951767E0
6.963855849E0,-1.900305003E-1,2.186492920E0,9.548861504E0
6.968907099E0,-2.403360009E-1,2.200865984E0,9.558443069E0
6.973958297E0,-2.834550142E-1,2.157747030E0,9.599166870E0
6.979009547E0,-2.954325080E-1,2.157747030E0,9.575211525E0
6.984060745E0,-3.074100018E-1,2.145769596E0,9.603958130E0
6.989123817E0,-3.145965040E-1,2.112232447E0,9.651867867E0
6.994175015E0,-3.002234995E-1,2.133791924E0,9.656659126E0
6.999226265E0,-3.098055124E-1,2.160142422E0,9.661450386E0
7.004277463E0,-2.379405051E-1,2.215239048E0,9.702173233E0
7.009328713E0,-1.804485023E-1,2.236798525E0,9.673427582E0
7.014379911E0,-9.900149703E-2,2.311058998E0,9.685404778E0
7.019430432E0,-4.630050063E-2,2.330223083E0,9.697382927E0
7.024481630E0,-4.150950164E-2,2.368551016E0,9.627913475E0
7.029532880E0,-1.995000057E-2,2.414065599E0,9.582398415E0
7.034584078E0,-7.859999896E-4,2.421252012E0,9.570421219E0
7.039635328E0,2.556449920E-2,2.397296906E0,9.577607155E0
7.044686526E0,1.609500032E-3,2.414065599E0,9.539279938E0
7.049728817E0,-1.995000057E-2,2.411669970E0,9.546465874E0
7.054780015E0,-7.983750105E-2,2.358968973E0,9.508137703E0
7.059831265E0,-1.756574959E-1,2.323036432E0,9.551257133E0
7.064882463E0,-2.187764943E-1,2.301476955E0,9.594375610E0
7.069933713E0,-2.714774907E-1,2.258358002E0,9.615935326E0
7.074984911E0,-2.810595036E-1,2.246380568E0,9.630308151E0
7.080040692E0,-2.810595036E-1,2.263149023E0,9.651867867E0
7.085091890E0,-2.523134947E-1,2.224821091E0,9.625517845E0
7.090143088E0,-2.259629965E-1,2.236798525E0,9.572816849E0
7.095194286E0,-2.211720049E-1,2.296685934E0,9.570421219E0
7.100245484E0,-1.445160061E-1,2.296685934E0,9.532093048E0
7.105296630E0,-1.373295039E-1,2.299081564E0,9.491369247E0
7.110339651E0,-1.373295039E-1,2.327827454E0,9.465019226E0
7.115390797E0,-1.876350045E-1,2.327827454E0,9.443459511E0
7.120442047E0,-1.852394938E-1,2.337409496E0,9.431482315E0
7.125493192E0,-1.588889956E-1,2.368551016E0,9.441063881E0
7.130544390E0,-1.421204954E-1,2.356573582E0,9.460227966E0
7.135595588E0,-1.636800021E-1,2.354177952E0,9.457832336E0
7.140663609E0,-1.996124983E-1,2.332618475E0,9.441063881E0
7.145714807E0,-2.403360009E-1,2.294290543E0,9.455436707E0
7.150766005E0,-2.762685120E-1,2.239193916E0,9.467414856E0
7.155817203E0,-2.930369973E-1,2.215239048E0,9.508137703E0
7.160868401E0,-3.241784871E-1,2.203261614E0,9.498556137E0
7.165919599E0,-3.577154875E-1,2.176911116E0,9.532093048E0
7.170964807E0,-3.649019897E-1,2.152956009E0,9.570421219E0
7.176016005E0,-3.361560106E-1,2.186492920E0,9.541674614E0
7.181067203E0,-3.193874955E-1,2.224821091E0,9.532093048E0
7.186118401E0,-2.786639929E-1,2.253566980E0,9.534488678E0
7.191169599E0,-2.211720049E-1,2.275126457E0,9.532093048E0
7.196220797E0,-2.115900069E-1,2.275126457E0,9.532093048E0
7.201268817E0,-2.067990005E-1,2.287103891E0,9.544070244E0
7.206320015E0,-2.044035047E-1,2.291894913E0,9.572816849E0
7.211371213E0,-1.708665043E-1,2.308663607E0,9.606353760E0
7.216422411E0,-1.229564995E-1,2.358968973E0,9.639890671E0
7.221473609E0,-9.181500226E-2,2.323036432E0,9.668636322E0
7.226524807E0,-6.785999984E-2,2.332618475E0,9.644681931E0
7.231591422E0,-3.671849892E-2,2.320641041E0,9.668636322E0
7.236642620E0,-5.827800184E-2,2.284708500E0,9.613539696E0
7.241693817E0,-9.900149703E-2,2.253566980E0,9.627913475E0
7.246745015E0,-1.229564995E-1,2.296685934E0,9.630308151E0
7.251796213E0,-1.229564995E-1,2.265544415E0,9.632703781E0
7.256847411E0,-1.301430017E-1,2.253566980E0,9.663845062E0
7.261886995E0,-1.397249997E-1,2.258358002E0,9.692591667E0
7.266938192E0,-1.157699972E-1,2.279917479E0,9.709360123E0
7.271989390E0,-1.421204954E-1,2.241589546E0,9.680614471E0
7.277040588E0,-1.253519952E-1,2.234402895E0,9.632703781E0
7.282091786E0,-1.540980041E-1,2.275126457E0,9.627913475E0
7.287142932E0,-1.876350045E-1,2.270335436E0,9.620726585E0
7.292179026E0,-1.828439981E-1,2.234402895E0,9.553652763E0
7.297230224E0,-1.564934999E-1,2.234402895E0,9.565629959E0
7.302281422E0,-1.469115019E-1,2.243984938E0,9.505742073E0
7.307332567E0,-1.517024934E-1,2.265544415E0,9.443459511E0
7.312383765E0,-9.900149703E-2,2.282313108E0,9.388362885E0
7.317434963E0,-6.546449661E-2,2.294290543E0,9.393154144E0
7.322497724E0,-8.223299682E-2,2.313454390E0,9.407526970E0
7.327548922E0,-5.109149963E-2,2.318245411E0,9.419504166E0
7.332600120E0,-4.390500113E-2,2.315850019E0,9.436272621E0
7.337651265E0,-3.671849892E-2,2.346991539E0,9.491369247E0
7.342702463E0,-2.953200042E-2,2.299081564E0,9.606353760E0
7.347753661E0,-2.234550007E-2,2.287103891E0,9.637495041E0
7.352803088E0,-4.630050063E-2,2.284708500E0,9.733315468E0
7.357854286E0,-2.713650092E-2,2.277522087E0,9.800389290E0
7.362905484E0,-7.265099883E-2,2.253566980E0,9.814762115E0
7.367956682E0,-1.469115019E-1,2.239193916E0,9.869858742E0
7.373007880E0,-1.732620001E-1,2.186492920E0,9.848299026E0
7.378059078E0,-2.020079941E-1,2.164933443E0,9.809970856E0
7.383102359E0,-2.307540029E-1,2.114628077E0,9.793202400E0
7.388153557E0,-2.044035047E-1,2.126605511E0,9.766852379E0
7.393204755E0,-2.331494987E-1,2.109837055E0,9.706964493E0
7.398255953E0,-2.762685120E-1,2.129000902E0,9.635099411E0
7.403307151E0,-3.217830062E-1,2.119419098E0,9.599166870E0
7.408358349E0,-3.337605000E-1,2.109837055E0,9.551257133E0
7.413414130E0,-3.625065088E-1,2.107441425E0,9.479392052E0
7.418465328E0,-3.936479986E-1,2.095463991E0,9.433877945E0
7.423516526E0,-3.313649893E-1,2.119419098E0,9.419504166E0
7.428567724E0,-3.122009933E-1,2.162538052E0,9.359617233E0
7.433618922E0,-2.547090054E-1,2.184097528E0,9.311706543E0
7.438670120E0,-2.594999969E-1,2.210448027E0,9.342848778E0
7.443695432E0,-2.283585072E-1,2.224821091E0,9.311706543E0
7.448746682E0,-2.163809985E-1,2.208052397E0,9.352430344E0
7.453797880E0,-1.924259961E-1,2.220030069E0,9.378781319E0
7.458849078E0,-1.756574959E-1,2.186492920E0,9.378781319E0
7.463900224E0,-1.493069977E-1,2.200865984E0,9.397945404E0
7.468951422E0,-1.469115019E-1,2.210448027E0,9.460227966E0
7.474021838E0,-1.445160061E-1,2.176911116E0,9.510533333E0
7.479073036E0,-1.636800021E-1,2.203261614E0,9.500951767E0
7.484124234E0,-2.115900069E-1,2.169724464E0,9.510533333E0
7.489175432E0,-2.187764943E-1,2.172120094E0,9.606353760E0
7.494226630E0,-2.475225031E-1,2.114628077E0,9.625517845E0
7.499277776E0,-2.642909884E-1,2.090672970E0,9.694987297E0
7.504328713E0,-2.786639929E-1,2.088277578E0,9.706964493E0
7.509379911E0,-2.906414866E-1,2.093068600E0,9.697382927E0
7.514431109E0,-3.145965040E-1,2.047554016E0,9.654263496E0
7.519482255E0,-3.169920146E-1,1.990061998E0,9.623122215E0
7.524533505E0,-3.145965040E-1,1.990061998E0,9.577607155E0
7.529584651E0,-3.193874955E-1,2.004435062E0,9.529697418E0
7.534653974E0,-3.193874955E-1,2.023598909E0,9.479392052E0
7.539705172E0,-3.505289853E-1,2.066718102E0,9.433877945E0
7.544756370E0,-3.265739977E-1,2.085881948E0,9.409922600E0
7.549807567E0,-2.978279889E-1,2.119419098E0,9.419504166E0
7.554858765E0,-2.690820098E-1,2.152956009E0,9.445855141E0
7.559909911E0,-2.499179989E-1,2.179306507E0,9.424295425E0
7.564948974E0,-1.972170025E-1,2.167329073E0,9.448250771E0
7.570000172E0,-1.900305003E-1,2.164933443E0,9.510533333E0
7.575051370E0,-1.780530065E-1,2.179306507E0,9.551257133E0
7.580102567E0,-1.924259961E-1,2.157747030E0,9.589585304E0
7.585153765E0,-1.636800021E-1,2.198470592E0,9.599166870E0
7.590204911E0,-1.469115019E-1,2.174515486E0,9.606353760E0
7.595256213E0,-1.612845063E-1,2.124209881E0,9.601562500E0
7.600307411E0,-2.283585072E-1,2.136187553E0,9.580002785E0
7.605358609E0,-2.571044862E-1,2.119419098E0,9.635099411E0
7.610409807E0,-2.523134947E-1,2.124209881E0,9.608749390E0
7.615460953E0,-2.978279889E-1,2.105046034E0,9.601562500E0
7.620512151E0,-2.930369973E-1,2.107441425E0,9.654263496E0
7.625570432E0,-2.499179989E-1,2.069113493E0,9.690196037E0
7.630621630E0,-2.379405051E-1,2.071508884E0,9.723732948E0
7.635672828E0,-2.187764943E-1,2.069113493E0,9.757269859E0
7.640723974E0,-2.115900069E-1,2.078695536E0,9.833926201E0
7.645775172E0,-2.211720049E-1,2.066718102E0,9.809970856E0
7.650826370E0,-2.403360009E-1,2.047554016E0,9.862671852E0
7.655880588E0,-2.858504951E-1,2.023598909E0,9.865067482E0
7.660931786E0,-3.002234995E-1,2.035576582E0,9.853090286E0
7.665982984E0,-2.882460058E-1,2.028389931E0,9.790806770E0
7.671034182E0,-2.618955076E-1,2.054740429E0,9.797993660E0
7.676085380E0,-2.666864991E-1,2.059531450E0,9.790806770E0
7.681136526E0,-2.571044862E-1,2.049949408E0,9.747688293E0
7.686170224E0,-2.235675007E-1,2.066718102E0,9.742897034E0
7.691221422E0,-2.091944963E-1,2.057136059E0,9.723732948E0
7.696272620E0,-1.876350045E-1,2.040367603E0,9.733315468E0
7.701323817E0,-1.564934999E-1,2.064322472E0,9.762061119E0
7.706375015E0,-1.564934999E-1,2.095463991E0,9.814762115E0
7.711426161E0,-1.349339932E-1,2.131396532E0,9.884231567E0
7.716480276E0,-1.037925035E-1,2.164933443E0,9.903395653E0
7.721531474E0,-5.827800184E-2,2.205657005E0,9.879440308E0
7.726582724E0,-7.983750105E-2,2.186492920E0,9.874649048E0
7.731633870E0,-7.504650205E-2,2.186492920E0,9.833926201E0
7.736685067E0,-8.941949904E-2,2.160142422E0,9.778829575E0
7.741736265E0,-1.013970003E-1,2.155351400E0,9.673427582E0
7.746794130E0,-1.349339932E-1,2.088277578E0,9.584794044E0
7.751845328E0,-1.373295039E-1,2.069113493E0,9.505742073E0
7.756896526E0,-1.900305003E-1,2.025994539E0,9.450646400E0
7.761947724E0,-2.690820098E-1,2.040367603E0,9.376385689E0
7.766998922E0,-3.265739977E-1,2.035576582E0,9.321289062E0
7.772050120E0,-3.337605000E-1,2.023598909E0,9.294938087E0
7.777107463E0,-3.385514915E-1,1.980479956E0,9.321289062E0
7.782158661E0,-3.625065088E-1,1.944547534E0,9.352430344E0
7.787209859E0,-3.385514915E-1,1.946943045E0,9.405131340E0
7.792261057E0,-3.625065088E-1,1.934965491E0,9.491369247E0
7.797312255E0,-3.744840026E-1,1.942152023E0,9.596771240E0
7.802363453E0,-3.409470022E-1,1.906219482E0,9.656659126E0
7.807410588E0,-3.553200066E-1,1.865496039E0,9.690196037E0
7.812461786E0,-3.960435092E-1,1.853518486E0,9.764456749E0
7.817512984E0,-4.128119946E-1,1.843936443E0,9.807575226E0
7.822564182E0,-4.152075052E-1,1.867891550E0,9.826739311E0
7.827615380E0,-3.888570070E-1,1.875077963E0,9.833926201E0
7.832666578E0,-3.553200066E-1,1.889451027E0,9.841112137E0
7.837704130E0,-3.505289853E-1,1.906219482E0,9.831530571E0
7.842755276E0,-3.241784871E-1,1.932569981E0,9.788411140E0
7.847806526E0,-2.978279889E-1,1.946943045E0,9.728524208E0
7.852857672E0,-3.002234995E-1,1.975689054E0,9.668636322E0
7.857908870E0,-2.355449945E-1,2.025994539E0,9.575211525E0
7.862960067E0,-2.451270074E-1,2.049949408E0,9.500951767E0
7.868018922E0,-2.283585072E-1,2.076299906E0,9.421899796E0
7.873070120E0,-1.684709936E-1,2.121814489E0,9.421899796E0
7.878121317E0,-1.061879992E-1,2.112232447E0,9.357221603E0
7.883172463E0,-4.390500113E-2,2.160142422E0,9.333266258E0
7.888223661E0,-1.515899971E-2,2.181701899E0,9.311706543E0
7.893274859E0,-5.109149963E-2,2.176911116E0,9.342848778E0
7.898333974E0,-7.025550306E-2,2.174515486E0,9.333266258E0
7.903385172E0,-1.061879992E-1,2.164933443E0,9.335661888E0
7.908436370E0,-1.636800021E-1,2.124209881E0,9.371594429E0
7.913487567E0,-1.732620001E-1,2.121814489E0,9.476996422E0
7.918538765E0,-1.924259961E-1,2.105046034E0,9.551257133E0
7.923589963E0,-1.780530065E-1,2.078695536E0,9.596771240E0
7.928632047E0,-1.996124983E-1,2.047554016E0,9.623122215E0
7.933683245E0,-2.331494987E-1,2.011621475E0,9.683009148E0
7.938734442E0,-1.972170025E-1,2.014017105E0,9.747688293E0
7.943785640E0,-2.044035047E-1,1.994853020E0,9.783620834E0
7.948836838E0,-1.804485023E-1,2.016412497E0,9.833926201E0
7.953888036E0,-1.301430017E-1,2.021203518E0,9.879440308E0
7.958942359E0,-1.349339932E-1,2.023598909E0,9.884231567E0
7.963993557E0,-1.612845063E-1,1.994853020E0,9.853090286E0
7.969044755E0,-1.564934999E-1,2.035576582E0,9.817157745E0
7.974095953E0,-1.397249997E-1,2.066718102E0,9.833926201E0
7.979147151E0,-1.780530065E-1,2.066718102E0,9.781225204E0
7.984198349E0,-1.732620001E-1,2.030785561E0,9.754874229E0
7.989303401E0,-1.421204954E-1,2.021203518E0,9.716546059E0
7.994354547E0,-1.588889956E-1,2.030785561E0,9.675823212E0
7.999405797E0,-2.020079941E-1,2.025994539E0,9.651867867E0
8.004456995E0,-2.235675007E-1,2.018807888E0,9.632703781E0
8.009508140E0,-2.547090054E-1,2.006830454E0,9.659054756E0
8.014559338E0,-2.858504951E-1,2.021203518E0,9.603958130E0
8.019553922E0,-3.002234995E-1,1.999644041E0,9.546465874E0
8.024605120E0,-2.499179989E-1,2.040367603E0,9.615935326E0
8.029656317E0,-2.355449945E-1,2.069113493E0,9.570421219E0
8.034707463E0,-2.283585072E-1,2.083486557E0,9.532093048E0
8.039758661E0,-2.211720049E-1,2.057136059E0,9.445855141E0
8.044809859E0,-2.163809985E-1,2.047554016E0,9.462623596E0
8.049859651E0,-2.187764943E-1,2.073904514E0,9.457832336E0
8.054910797E0,-1.828439981E-1,2.083486557E0,9.441063881E0
8.059962047E0,-1.636800021E-1,2.088277578E0,9.414713860E0
8.065013192E0,-1.253519952E-1,2.097859383E0,9.390758514E0
8.070064390E0,-7.265099883E-2,2.105046034E0,9.433877945E0
8.075115588E0,-5.109149963E-2,2.119419098E0,9.500951767E0
8.080171265E0,-7.504650205E-2,2.095463991E0,9.529697418E0
8.085222463E0,-1.133745015E-1,2.124209881E0,9.572816849E0
8.090273609E0,-6.785999984E-2,2.107441425E0,9.620726585E0
8.095324807E0,-5.588249862E-2,2.114628077E0,9.671031952E0
8.100375953E0,-6.785999984E-2,2.097859383E0,9.699777603E0
8.105427151E0,-7.744199783E-2,2.112232447E0,9.728524208E0
8.110478453E0,-7.744199783E-2,2.085881948E0,9.745292664E0
8.115529651E0,-1.061879992E-1,2.066718102E0,9.764456749E0
8.120580797E0,-1.205610037E-1,2.071508884E0,9.771642685E0
8.125631995E0,-1.205610037E-1,2.083486557E0,9.726128578E0
8.130683140E0,-1.397249997E-1,2.085881948E0,9.716546059E0
8.135734338E0,-1.421204954E-1,2.085881948E0,9.661450386E0
8.140792359E0,-9.421049803E-2,2.088277578E0,9.654263496E0
8.145843557E0,-1.229564995E-1,2.112232447E0,9.627913475E0
8.150894703E0,-9.660600126E-2,2.140978575E0,9.568025589E0
8.155945901E0,-9.660600126E-2,2.148164988E0,9.508137703E0
8.160997047E0,-1.397249997E-1,2.174515486E0,9.488973618E0
8.166048245E0,-1.349339932E-1,2.162538052E0,9.448250771E0
8.171139807E0,-1.564934999E-1,2.152956009E0,9.412318230E0
8.176190953E0,-1.732620001E-1,2.152956009E0,9.381176949E0
8.181242151E0,-1.445160061E-1,2.174515486E0,9.314102173E0
8.186293297E0,-1.421204954E-1,2.176911116E0,9.287752151E0
8.191344495E0,-1.804485023E-1,2.160142422E0,9.270983696E0
8.196395640E0,-1.660754979E-1,2.174515486E0,9.309311867E0
8.201393713E0,-1.900305003E-1,2.186492920E0,9.347639084E0
8.206444859E0,-1.996124983E-1,2.148164988E0,9.335661888E0
8.211496057E0,-2.044035047E-1,2.131396532E0,9.364407539E0
8.216547203E0,-2.307540029E-1,2.124209881E0,9.407526970E0
8.221598401E0,-2.523134947E-1,2.129000902E0,9.462623596E0
8.226649547E0,-3.002234995E-1,2.157747030E0,9.570421219E0
8.231699599E0,-3.074100018E-1,2.105046034E0,9.637495041E0
8.236750745E0,-3.361560106E-1,2.081090927E0,9.697382927E0
8.241801942E0,-2.714774907E-1,2.085881948E0,9.726128578E0
8.246853088E0,-2.978279889E-1,2.088277578E0,9.733315468E0
8.251904286E0,-3.074100018E-1,2.066718102E0,9.764456749E0
8.256955432E0,-2.930369973E-1,2.049949408E0,9.783620834E0
8.262017047E0,-2.714774907E-1,2.059531450E0,9.814762115E0
8.267068245E0,-2.307540029E-1,2.069113493E0,9.793202400E0
8.272119390E0,-2.044035047E-1,2.049949408E0,9.812366486E0
8.277170588E0,-2.307540029E-1,2.040367603E0,9.795598030E0
8.282221734E0,-2.067990005E-1,2.054740429E0,9.819553375E0
8.287272932E0,-2.020079941E-1,2.083486557E0,9.817157745E0
8.292321682E0,-2.115900069E-1,2.102650404E0,9.821948051E0
8.297372880E0,-2.283585072E-1,2.095463991E0,9.862671852E0
8.302424026E0,-2.211720049E-1,2.124209881E0,9.797993660E0
8.307475224E0,-2.307540029E-1,2.129000902E0,9.788411140E0
8.312526370E0,-1.756574959E-1,2.114628077E0,9.778829575E0
8.317577567E0,-1.181655005E-1,2.081090927E0,9.754874229E0
8.322636838E0,-1.205610037E-1,2.081090927E0,9.766852379E0
8.327688036E0,-1.037925035E-1,2.107441425E0,9.692591667E0
8.332739182E0,-1.085835025E-1,2.157747030E0,9.699777603E0
8.337790380E0,-7.983750105E-2,2.152956009E0,9.639890671E0
8.342841526E0,-8.462850004E-2,2.143373966E0,9.608749390E0
8.347892724E0,-1.421204954E-1,2.196074963E0,9.608749390E0
8.352962515E0,-1.301430017E-1,2.193679571E0,9.568025589E0
8.358013661E0,-1.373295039E-1,2.217634439E0,9.527301788E0
8.363064859E0,-1.373295039E-1,2.229612112E0,9.544070244E0
8.368116005E0,-1.181655005E-1,2.251171589E0,9.505742073E0
8.373167203E0,-1.205610037E-1,2.222425461E0,9.529697418E0
8.378218349E0,-7.025550306E-2,2.210448027E0,9.496160507E0
8.383241057E0,-6.546449661E-2,2.203261614E0,9.522510529E0
8.388292255E0,-6.785999984E-2,2.232007504E0,9.465019226E0
8.393343401E0,-5.588249862E-2,2.224821091E0,9.481787682E0
8.398394547E0,-5.348699912E-2,2.196074963E0,9.524906158E0
8.403445745E0,-8.223299682E-2,2.208052397E0,9.553652763E0
8.408496890E0,-1.013970003E-1,2.193679571E0,9.563234329E0
8.413538245E0,-1.157699972E-1,2.155351400E0,9.587189674E0
8.418589390E0,-1.469115019E-1,2.126605511E0,9.599166870E0
8.423640588E0,-1.708665043E-1,2.140978575E0,9.587189674E0
8.428691734E0,-1.732620001E-1,2.131396532E0,9.603958130E0
8.433742932E0,-1.756574959E-1,2.124209881E0,9.591980934E0
8.438794078E0,-1.660754979E-1,2.109837055E0,9.539279938E0
8.443885745E0,-1.469115019E-1,2.097859383E0,9.500951767E0
8.448936942E0,-1.445160061E-1,2.145769596E0,9.532093048E0
8.453988088E0,-1.181655005E-1,2.133791924E0,9.481787682E0
8.459039234E0,-8.462850004E-2,2.155351400E0,9.457832336E0
8.464090432E0,-8.702400327E-2,2.164933443E0,9.421899796E0
8.469141578E0,-4.630050063E-2,2.157747030E0,9.366803169E0
8.474159859E0,-7.265099883E-2,2.179306507E0,9.326080322E0
8.479211057E0,-1.013970003E-1,2.157747030E0,9.330870628E0
8.484262255E0,-1.373295039E-1,2.126605511E0,9.309311867E0
8.489313401E0,-1.085835025E-1,2.109837055E0,9.364407539E0
8.494364599E0,-1.037925035E-1,2.121814489E0,9.405131340E0
8.499415745E0,-1.493069977E-1,2.143373966E0,9.424295425E0
8.504473713E0,-1.517024934E-1,2.073904514E0,9.443459511E0
8.509524911E0,-1.828439981E-1,2.040367603E0,9.481787682E0
8.514576057E0,-2.211720049E-1,2.016412497E0,9.527301788E0
8.519627203E0,-2.331494987E-1,2.009226084E0,9.541674614E0
8.524678401E0,-2.882460058E-1,1.997248530E0,9.594375610E0
8.529729547E0,-3.169920146E-1,1.985270977E0,9.558443069E0
8.534775484E0,-3.601109982E-1,2.002039433E0,9.544070244E0
8.539826682E0,-3.720884919E-1,1.994853020E0,9.572816849E0
8.544877828E0,-3.433425128E-1,2.006830454E0,9.577607155E0
8.549928974E0,-3.002234995E-1,2.011621475E0,9.587189674E0
8.554980172E0,-2.499179989E-1,2.016412497E0,9.587189674E0
8.560031317E0,-2.163809985E-1,2.028389931E0,9.589585304E0
8.565089182E0,-1.636800021E-1,2.081090927E0,9.606353760E0
8.570140328E0,-1.157699972E-1,2.102650404E0,9.603958130E0
8.575191526E0,-1.133745015E-1,2.081090927E0,9.623122215E0
8.580242672E0,-1.205610037E-1,2.157747030E0,9.589585304E0
8.585293870E0,-1.205610037E-1,2.169724464E0,9.599166870E0
8.590345015E0,-1.085835025E-1,2.145769596E0,9.596771240E0
8.595407255E0,-1.469115019E-1,2.169724464E0,9.620726585E0
8.600458453E0,-1.636800021E-1,2.143373966E0,9.637495041E0
8.605509599E0,-2.259629965E-1,2.133791924E0,9.668636322E0
8.610560797E0,-2.283585072E-1,2.119419098E0,9.666240692E0
8.615611942E0,-2.307540029E-1,2.090672970E0,9.608749390E0
8.620663140E0,-2.475225031E-1,2.097859383E0,9.647076607E0
8.625703765E0,-2.642909884E-1,2.078695536E0,9.709360123E0
8.630754963E0,-2.475225031E-1,2.078695536E0,9.733315468E0
8.635806109E0,-2.475225031E-1,2.109837055E0,9.740501404E0
8.640857255E0,-2.283585072E-1,2.148164988E0,9.721337318E0
8.645908453E0,-2.044035047E-1,2.155351400E0,9.721337318E0
8.650959599E0,-1.900305003E-1,2.160142422E0,9.711755753E0
8.656003974E0,-1.421204954E-1,2.196074963E0,9.683009148E0
8.661055172E0,-1.037925035E-1,2.205657005E0,9.683009148E0
8.666106317E0,-6.306900084E-2,2.215239048E0,9.666240692E0
8.671157463E0,-6.306900084E-2,2.227216482E0,9.565629959E0
8.676208661E0,-9.421049803E-2,2.224821091E0,9.534488678E0
8.681259807E0,-1.109789982E-1,2.181701899E0,9.524906158E0
8.686289599E0,-1.157699972E-1,2.188888550E0,9.517720222E0
8.691340797E0,-1.852394938E-1,2.191283941E0,9.546465874E0
8.696391942E0,-2.020079941E-1,2.198470592E0,9.575211525E0
8.701443088E0,-2.044035047E-1,2.208052397E0,9.613539696E0
8.706494286E0,-2.331494987E-1,2.188888550E0,9.644681931E0
8.711545484E0,-2.451270074E-1,2.169724464E0,9.666240692E0
8.716619495E0,-2.594999969E-1,2.174515486E0,9.673427582E0
8.721670692E0,-2.403360009E-1,2.167329073E0,9.644681931E0
8.726721890E0,-2.451270074E-1,2.145769596E0,9.694987297E0
8.731772984E0,-2.547090054E-1,2.157747030E0,9.687800407E0
8.736824182E0,-2.547090054E-1,2.162538052E0,9.702173233E0
8.741875328E0,-2.571044862E-1,2.179306507E0,9.644681931E0
8.746941005E0,-2.307540029E-1,2.212843418E0,9.632703781E0
8.751992151E0,-2.163809985E-1,2.243984938E0,9.565629959E0
8.757043349E0,-1.229564995E-1,2.248775959E0,9.568025589E0
8.762094495E0,-8.702400327E-2,2.284708500E0,9.613539696E0
8.767145692E0,-1.085835025E-1,2.267940044E0,9.599166870E0
8.772196838E0,-1.181655005E-1,2.287103891E0,9.558443069E0
8.777233974E0,-1.109789982E-1,2.239193916E0,9.556048393E0
8.782285172E0,-1.205610037E-1,2.253566980E0,9.596771240E0
8.787336317E0,-1.828439981E-1,2.258358002E0,9.635099411E0
8.792387463E0,-1.804485023E-1,2.215239048E0,9.618330956E0
8.797438661E0,-1.900305003E-1,2.200865984E0,9.659054756E0
8.802489807E0,-2.091944963E-1,2.176911116E0,9.675823212E0
8.807538609E0,-1.924259961E-1,2.148164988E0,9.730919838E0
8.812589807E0,-1.708665043E-1,2.145769596E0,9.769247055E0
8.817640953E0,-1.277475059E-1,2.148164988E0,9.886627197E0
8.822692151E0,-1.421204954E-1,2.145769596E0,9.936932564E0
8.827743297E0,-1.684709936E-1,2.136187553E0,9.963282585E0
8.832794495E0,-1.277475059E-1,2.136187553E0,1.001837921E1
8.837856942E0,-9.181500226E-2,2.140978575E0,1.003754330E1
8.842908140E0,-8.462850004E-2,2.186492920E0,1.005910301E1
8.847959286E0,-9.181500226E-2,2.176911116E0,1.002317047E1
8.853010432E0,-1.181655005E-1,2.172120094E0,9.929745674E0
8.858061630E0,-1.133745015E-1,2.162538052E0,9.869858742E0
8.863112776E0,-1.349339932E-1,2.143373966E0,9.790806770E0
8.868166005E0,-1.588889956E-1,2.169724464E0,9.687800407E0
8.873217203E0,-1.900305003E-1,2.191283941E0,9.589585304E0
8.878268349E0,-2.044035047E-1,2.184097528E0,9.517720222E0
8.883319547E0,-2.235675007E-1,2.188888550E0,9.441063881E0
8.888370692E0,-2.331494987E-1,2.239193916E0,9.359617233E0
8.893421838E0,-1.900305003E-1,2.282313108E0,9.340453148E0
8.898474807E0,-1.493069977E-1,2.291894913E0,9.263796806E0
8.903526005E0,-1.181655005E-1,2.325432062E0,9.194327354E0
8.908577151E0,-9.660600126E-2,2.373342037E0,9.151208878E0
8.913628297E0,-5.588249862E-2,2.409274578E0,9.117671967E0
8.918679495E0,-5.348699912E-2,2.380528450E0,9.088925362E0
8.923730692E0,-5.348699912E-2,2.399692535E0,9.098507881E0
8.928777724E0,-3.911399841E-2,2.378133059E0,9.072156906E0
8.933828922E0,-7.265099883E-2,2.394901514E0,9.072156906E0
8.938880067E0,-6.546449661E-2,2.392505884E0,9.069761276E0
8.943931213E0,-1.540980041E-1,2.315850019E0,9.103298187E0
8.948982411E0,-1.780530065E-1,2.306267977E0,9.155999184E0
8.954033557E0,-1.876350045E-1,2.284708500E0,9.201514244E0
8.959074495E0,-1.996124983E-1,2.287103891E0,9.280565262E0
8.964125692E0,-2.331494987E-1,2.291894913E0,9.397945404E0
8.969176838E0,-2.906414866E-1,2.282313108E0,9.450646400E0
8.974228036E0,-3.193874955E-1,2.253566980E0,9.503347397E0
8.979279182E0,-3.577154875E-1,2.210448027E0,9.496160507E0
8.984330380E0,-3.625065088E-1,2.210448027E0,9.493764877E0
8.989397203E0,-3.265739977E-1,2.174515486E0,9.520115852E0
8.994448401E0,-3.145965040E-1,2.131396532E0,9.512928963E0
8.999499547E0,-3.337605000E-1,2.093068600E0,9.462623596E0
9.004550745E0,-3.553200066E-1,2.097859383E0,9.486578941E0
9.009601890E0,-3.433425128E-1,2.112232447E0,9.472205162E0
9.014653036E0,-3.649019897E-1,2.105046034E0,9.517720222E0
9.019706682E0,-3.696930110E-1,2.136187553E0,9.529697418E0
9.024757828E0,-3.553200066E-1,2.140978575E0,9.522510529E0
9.029809026E0,-3.289695084E-1,2.157747030E0,9.524906158E0
9.034860224E0,-3.289695084E-1,2.105046034E0,9.591980934E0
9.039911370E0,-3.337605000E-1,2.085881948E0,9.625517845E0
9.044962515E0,-2.954325080E-1,2.097859383E0,9.647076607E0
9.050006317E0,-2.547090054E-1,2.121814489E0,9.692591667E0
9.055057463E0,-2.427314967E-1,2.112232447E0,9.714151382E0
9.060108661E0,-2.571044862E-1,2.117023468E0,9.704568863E0
9.065159807E0,-2.642909884E-1,2.126605511E0,9.694987297E0
9.070211005E0,-2.738730013E-1,2.129000902E0,9.692591667E0
9.075262151E0,-3.241784871E-1,2.119419098E0,9.656659126E0
9.080314130E0,-3.122009933E-1,2.081090927E0,9.671031952E0
9.085365380E0,-3.217830062E-1,2.105046034E0,9.651867867E0
9.090416578E0,-3.744840026E-1,2.100255013E0,9.577607155E0
9.095467776E0,-3.098055124E-1,2.076299906E0,9.582398415E0
9.100519026E0,-2.499179989E-1,2.088277578E0,9.532093048E0
9.105570224E0,-2.235675007E-1,2.097859383E0,9.534488678E0
9.110617880E0,-2.020079941E-1,2.097859383E0,9.536884308E0
9.115669078E0,-1.852394938E-1,2.109837055E0,9.553652763E0
9.120720328E0,-1.708665043E-1,2.114628077E0,9.606353760E0
9.125771526E0,-1.445160061E-1,2.157747030E0,9.601562500E0
9.130822776E0,-1.540980041E-1,2.198470592E0,9.654263496E0
9.135873974E0,-1.421204954E-1,2.217634439E0,9.654263496E0
9.140921890E0,-1.325384974E-1,2.227216482E0,9.687800407E0
9.145973140E0,-1.445160061E-1,2.215239048E0,9.721337318E0
9.151024338E0,-1.612845063E-1,2.210448027E0,9.680614471E0
9.156075536E0,-2.044035047E-1,2.184097528E0,9.661450386E0
9.161126786E0,-2.307540029E-1,2.179306507E0,9.599166870E0
9.166177984E0,-2.067990005E-1,2.184097528E0,9.541674614E0
9.171237776E0,-2.379405051E-1,2.160142422E0,9.541674614E0
9.176289026E0,-2.594999969E-1,2.143373966E0,9.481787682E0
9.181340224E0,-2.571044862E-1,2.155351400E0,9.472205162E0
9.186391422E0,-2.307540029E-1,2.174515486E0,9.455436707E0
9.191442620E0,-2.379405051E-1,2.186492920E0,9.426691055E0
9.196493870E0,-2.115900069E-1,2.217634439E0,9.397945404E0
9.201545067E0,-1.325384974E-1,2.234402895E0,9.390758514E0
9.206596317E0,-9.900149703E-2,2.234402895E0,9.359617233E0
9.211647515E0,-1.085835025E-1,2.229612112E0,9.323684692E0
9.216698713E0,-1.133745015E-1,2.239193916E0,9.330870628E0
9.221749911E0,-1.349339932E-1,2.260753393E0,9.328475952E0
9.226801161E0,-1.253519952E-1,2.272731066E0,9.400340080E0
9.231861265E0,-1.157699972E-1,2.287103891E0,9.436272621E0
9.236912463E0,-1.636800021E-1,2.251171589E0,9.462623596E0
9.241963713E0,-1.876350045E-1,2.263149023E0,9.457832336E0
9.247014911E0,-2.020079941E-1,2.227216482E0,9.524906158E0
9.252066109E0,-2.115900069E-1,2.246380568E0,9.613539696E0
9.257117359E0,-2.044035047E-1,2.222425461E0,9.671031952E0
9.262157724E0,-2.235675007E-1,2.203261614E0,9.723732948E0
9.267208974E0,-2.738730013E-1,2.203261614E0,9.740501404E0
9.272260172E0,-2.690820098E-1,2.184097528E0,9.771642685E0
9.277311370E0,-2.978279889E-1,2.138582945E0,9.802784920E0
9.282362620E0,-3.122009933E-1,2.143373966E0,9.783620834E0
9.287413817E0,-3.241784871E-1,2.143373966E0,9.774038315E0
9.292453088E0,-3.265739977E-1,2.160142422E0,9.683009148E0
9.297504338E0,-3.409470022E-1,2.145769596E0,9.642286301E0
9.302555536E0,-3.241784871E-1,2.172120094E0,9.630308151E0
9.307606734E0,-2.858504951E-1,2.188888550E0,9.591980934E0
9.312657984E0,-2.499179989E-1,2.236798525E0,9.548861504E0
9.317709182E0,-2.139855027E-1,2.243984938E0,9.508137703E0
9.322747567E0,-2.211720049E-1,2.234402895E0,9.457832336E0
9.327798765E0,-1.996124983E-1,2.215239048E0,9.472205162E0
9.332849963E0,-2.187764943E-1,2.217634439E0,9.441063881E0
9.337901213E0,-2.044035047E-1,2.246380568E0,9.453041077E0
9.342952411E0,-1.852394938E-1,2.229612112E0,9.433877945E0
9.348003661E0,-2.139855027E-1,2.243984938E0,9.474600792E0
9.353057203E0,-2.403360009E-1,2.243984938E0,9.520115852E0
9.358108453E0,-2.355449945E-1,2.200865984E0,9.570421219E0
9.363159599E0,-2.211720049E-1,2.210448027E0,9.536884308E0
9.368210849E0,-2.427314967E-1,2.227216482E0,9.580002785E0
9.373262099E0,-2.379405051E-1,2.188888550E0,9.620726585E0
9.378313297E0,-1.900305003E-1,2.160142422E0,9.615935326E0
9.383377567E0,-1.636800021E-1,2.157747030E0,9.606353760E0
9.388428817E0,-1.972170025E-1,2.114628077E0,9.649472237E0
9.393480015E0,-2.618955076E-1,2.107441425E0,9.671031952E0
9.398531213E0,-2.954325080E-1,2.114628077E0,9.702173233E0
9.403582411E0,-3.169920146E-1,2.112232447E0,9.709360123E0
9.408633661E0,-2.978279889E-1,2.126605511E0,9.752478600E0
9.413704651E0,-2.738730013E-1,2.124209881E0,9.774038315E0
9.418755849E0,-2.571044862E-1,2.112232447E0,9.788411140E0
9.423807099E0,-2.523134947E-1,2.119419098E0,9.826739311E0
9.428858297E0,-2.020079941E-1,2.131396532E0,9.795598030E0
9.433909547E0,-2.355449945E-1,2.112232447E0,9.769247055E0
9.438960745E0,-2.499179989E-1,2.124209881E0,9.735710144E0
9.443974963E0,-2.666864991E-1,2.105046034E0,9.673427582E0
9.449026161E0,-2.786639929E-1,2.157747030E0,9.623122215E0
9.454077359E0,-2.690820098E-1,2.179306507E0,9.556048393E0
9.459128557E0,-1.876350045E-1,2.186492920E0,9.476996422E0
9.464179807E0,-1.924259961E-1,2.239193916E0,9.448250771E0
9.469231005E0,-1.013970003E-1,2.258358002E0,9.373990059E0
9.474306265E0,-3.911399841E-2,2.301476955E0,9.321289062E0
9.479357515E0,-2.953200042E-2,2.337409496E0,9.357221603E0
9.484408713E0,1.358699985E-2,2.378133059E0,9.362012863E0
9.489459911E0,-2.713650092E-2,2.373342037E0,9.405131340E0
9.494511161E0,-5.109149963E-2,2.399692535E0,9.462623596E0
9.499562359E0,-1.061879992E-1,2.370946407E0,9.476996422E0
9.504615380E0,-1.253519952E-1,2.375737429E0,9.522510529E0
9.509666630E0,-1.612845063E-1,2.382924080E0,9.546465874E0
9.514717828E0,-1.517024934E-1,2.361364603E0,9.608749390E0
9.519769026E0,-1.085835025E-1,2.327827454E0,9.692591667E0
9.524820276E0,-1.037925035E-1,2.303872585E0,9.728524208E0
9.529871474E0,-1.181655005E-1,2.311058998E0,9.776433945E0
9.534920588E0,-1.181655005E-1,2.306267977E0,9.807575226E0
9.539971838E0,-1.540980041E-1,2.272731066E0,9.826739311E0
9.545023036E0,-1.493069977E-1,2.272731066E0,9.848299026E0
9.550074234E0,-1.780530065E-1,2.313454390E0,9.857880592E0
9.555125484E0,-1.780530065E-1,2.303872585E0,9.869858742E0
9.560176682E0,-1.588889956E-1,2.339804888E0,9.843507767E0
9.565197932E0,-9.660600126E-2,2.335014105E0,9.809970856E0
9.570249182E0,-7.504650205E-2,2.356573582E0,9.802784920E0
9.575300380E0,-2.713650092E-2,2.349386930E0,9.754874229E0
9.580351578E0,-1.995000057E-2,2.366155386E0,9.745292664E0
9.585402828E0,-5.109149963E-2,2.358968973E0,9.699777603E0
9.590454026E0,-1.085835025E-1,2.332618475E0,9.637495041E0
9.595538140E0,-1.588889956E-1,2.330223083E0,9.608749390E0
9.600589390E0,-1.972170025E-1,2.339804888E0,9.611144066E0
9.605640588E0,-2.139855027E-1,2.335014105E0,9.551257133E0
9.610691786E0,-2.762685120E-1,2.279917479E0,9.508137703E0
9.615742984E0,-2.906414866E-1,2.265544415E0,9.527301788E0
9.620794234E0,-3.409470022E-1,2.279917479E0,9.508137703E0
9.625824442E0,-3.145965040E-1,2.277522087E0,9.493764877E0
9.630875640E0,-2.571044862E-1,2.291894913E0,9.496160507E0
9.635926890E0,-2.139855027E-1,2.282313108E0,9.469809532E0
9.640978088E0,-1.852394938E-1,2.277522087E0,9.498556137E0
9.646029286E0,-1.517024934E-1,2.275126457E0,9.426691055E0
9.651080484E0,-1.349339932E-1,2.267940044E0,9.362012863E0
9.656123557E0,-1.540980041E-1,2.306267977E0,9.330870628E0
9.661174755E0,-1.732620001E-1,2.351782560E0,9.352430344E0
9.666225953E0,-1.972170025E-1,2.363759995E0,9.381176949E0
9.671277203E0,-2.355449945E-1,2.354177952E0,9.371594429E0
9.676328401E0,-2.355449945E-1,2.373342037E0,9.433877945E0
9.681379599E0,-2.379405051E-1,2.346991539E0,9.457832336E0
9.686455536E0,-2.403360009E-1,2.349386930E0,9.503347397E0
9.691506786E0,-2.834550142E-1,2.358968973E0,9.534488678E0
9.696557984E0,-2.523134947E-1,2.299081564E0,9.544070244E0
9.701609182E0,-2.499179989E-1,2.277522087E0,9.584794044E0
9.706660380E0,-2.451270074E-1,2.255962610E0,9.563234329E0
9.711711630E0,-2.355449945E-1,2.205657005E0,9.539279938E0
9.716758140E0,-2.666864991E-1,2.184097528E0,9.551257133E0
9.721809390E0,-3.050144911E-1,2.145769596E0,9.591980934E0
9.726860588E0,-3.553200066E-1,2.136187553E0,9.623122215E0
9.731911786E0,-3.864614964E-1,2.140978575E0,9.659054756E0
9.736963036E0,-3.625065088E-1,2.109837055E0,9.680614471E0
9.742014234E0,-3.625065088E-1,2.093068600E0,9.668636322E0
9.747074026E0,-3.601109982E-1,2.042762995E0,9.706964493E0
9.752125276E0,-3.577154875E-1,2.011621475E0,9.671031952E0
9.757176474E0,-3.457379937E-1,1.992457509E0,9.697382927E0
9.762227672E0,-3.672975004E-1,1.968502522E0,9.709360123E0
9.767278922E0,-3.864614964E-1,1.946943045E0,9.738105774E0
9.772330120E0,-4.104165137E-1,1.958920479E0,9.714151382E0
9.777379338E0,-3.936479986E-1,1.956524968E0,9.723732948E0
9.782430588E0,-3.792749941E-1,1.958920479E0,9.704568863E0
9.787481786E0,-3.625065088E-1,1.985270977E0,9.649472237E0
9.792532984E0,-3.265739977E-1,1.982875466E0,9.596771240E0
9.797584182E0,-2.475225031E-1,2.002039433E0,9.560838699E0
9.802635432E0,-2.259629965E-1,2.016412497E0,9.544070244E0
9.807672411E0,-2.331494987E-1,2.016412497E0,9.498556137E0
9.812723609E0,-2.499179989E-1,2.023598909E0,9.527301788E0
9.817774807E0,-2.738730013E-1,2.059531450E0,9.541674614E0
9.822826005E0,-3.050144911E-1,2.033180952E0,9.529697418E0
9.827877255E0,-2.786639929E-1,2.006830454E0,9.522510529E0
9.832928453E0,-2.714774907E-1,2.011621475E0,9.546465874E0
9.837988765E0,-3.050144911E-1,2.009226084E0,9.541674614E0
9.843040015E0,-2.810595036E-1,1.997248530E0,9.517720222E0
9.848091213E0,-2.523134947E-1,2.009226084E0,9.467414856E0
9.853142411E0,-2.235675007E-1,2.002039433E0,9.467414856E0
9.858193609E0,-2.163809985E-1,2.042762995E0,9.436272621E0
9.863244859E0,-1.996124983E-1,2.093068600E0,9.383571625E0
9.868301838E0,-1.253519952E-1,2.119419098E0,9.352430344E0
9.873353088E0,-1.061879992E-1,2.145769596E0,9.278169632E0
9.878404286E0,-8.223299682E-2,2.176911116E0,9.278169632E0
9.883455484E0,-4.869600013E-2,2.208052397E0,9.213491440E0
9.888506734E0,-6.067350134E-2,2.184097528E0,9.184745789E0
9.893557932E0,-8.941949904E-2,2.217634439E0,9.215887070E0
9.898596526E0,-9.181500226E-2,2.217634439E0,9.251819611E0
9.903647776E0,-9.181500226E-2,2.236798525E0,9.316497803E0
9.908698974E0,-9.900149703E-2,2.210448027E0,9.381176949E0
9.913750172E0,-7.983750105E-2,2.184097528E0,9.472205162E0
9.918801422E0,-6.067350134E-2,2.172120094E0,9.556048393E0
9.923852567E0,-8.702400327E-2,2.155351400E0,9.647076607E0
9.928904859E0,-1.205610037E-1,2.140978575E0,9.678218842E0
9.933956109E0,-1.037925035E-1,2.114628077E0,9.762061119E0
9.939007307E0,-1.732620001E-1,2.124209881E0,9.805179596E0
9.944058505E0,-2.499179989E-1,2.126605511E0,9.797993660E0
9.949109703E0,-2.714774907E-1,2.100255013E0,9.795598030E0
9.954160953E0,-2.547090054E-1,2.117023468E0,9.776433945E0
9.959229859E0,-2.834550142E-1,2.126605511E0,9.750083923E0
9.964281109E0,-2.690820098E-1,2.126605511E0,9.663845062E0
9.969332307E0,-2.427314967E-1,2.164933443E0,9.613539696E0
9.974383505E0,-2.666864991E-1,2.167329073E0,9.599166870E0
9.979434703E0,-2.930369973E-1,2.169724464E0,9.500951767E0
9.984485953E0,-2.954325080E-1,2.203261614E0,9.424295425E0
9.989507672E0,-2.571044862E-1,2.241589546E0,9.414713860E0
9.994558870E0,-2.091944963E-1,2.255962610E0,9.393154144E0
9.999610067E0,-1.828439981E-1,2.279917479E0,9.373990059E0
1.000466127E1,-1.517024934E-1,2.265544415E0,9.397945404E0
1.000971252E1,-1.397249997E-1,2.294290543E0,9.433877945E0
1.001476371E1,-1.660754979E-1,2.263149023E0,9.503347397E0
1.001982731E1,-1.780530065E-1,2.265544415E0,9.551257133E0
1.002487856E1,-1.588889956E-1,2.222425461E0,9.627913475E0
1.002992976E1,-2.163809985E-1,2.193679571E0,9.675823212E0
1.003498095E1,-2.403360009E-1,2.164933443E0,9.709360123E0
1.004003220E1,-2.379405051E-1,2.164933443E0,9.740501404E0
1.004508340E1,-2.834550142E-1,2.100255013E0,9.757269859E0
1.005015074E1,-3.457379937E-1,2.025994539E0,9.728524208E0
1.005520200E1,-3.984389901E-1,2.018807888E0,9.754874229E0
1.006025319E1,-4.439535141E-1,2.009226084E0,9.776433945E0
1.006530439E1,-4.511399865E-1,2.061927080E0,9.783620834E0
1.007035559E1,-4.679085016E-1,2.078695536E0,9.769247055E0
1.007540684E1,-4.487445056E-1,2.126605511E0,9.723732948E0
1.008045397E1,-4.104165137E-1,2.162538052E0,9.764456749E0
1.008550517E1,-3.505289853E-1,2.172120094E0,9.766852379E0
1.009055637E1,-3.026190102E-1,2.208052397E0,9.728524208E0
1.009560757E1,-3.026190102E-1,2.232007504E0,9.771642685E0
1.010065882E1,-2.475225031E-1,2.258358002E0,9.807575226E0
1.010571002E1,-2.163809985E-1,2.308663607E0,9.800389290E0
1.011075309E1,-2.044035047E-1,2.363759995E0,9.769247055E0
1.011580429E1,-1.373295039E-1,2.327827454E0,9.694987297E0
1.012085548E1,-1.493069977E-1,2.315850019E0,9.639890671E0
1.012590668E1,-1.349339932E-1,2.323036432E0,9.570421219E0
1.013095793E1,-1.325384974E-1,2.325432062E0,9.524906158E0
1.013600913E1,-1.301430017E-1,2.315850019E0,9.450646400E0
1.014105923E1,-1.780530065E-1,2.342200518E0,9.405131340E0
1.014611043E1,-1.756574959E-1,2.346991539E0,9.381176949E0
1.015116163E1,-1.253519952E-1,2.337409496E0,9.414713860E0
1.015621288E1,-1.349339932E-1,2.330223083E0,9.371594429E0
1.016126408E1,-9.900149703E-2,2.368551016E0,9.436272621E0
1.016631528E1,-6.546449661E-2,2.394901514E0,9.469809532E0
1.017135903E1,-1.085835025E-1,2.358968973E0,9.481787682E0
1.017641022E1,-1.253519952E-1,2.380528450E0,9.476996422E0
1.018146142E1,-1.564934999E-1,2.356573582E0,9.498556137E0
1.018651267E1,-1.900305003E-1,2.315850019E0,9.508137703E0
1.019156387E1,-1.852394938E-1,2.323036432E0,9.486578941E0
1.019661507E1,-2.187764943E-1,2.287103891E0,9.460227966E0
1.020167668E1,-2.475225031E-1,2.255962610E0,9.448250771E0
1.020672788E1,-2.666864991E-1,2.265544415E0,9.433877945E0
1.021177908E1,-2.547090054E-1,2.215239048E0,9.417108536E0
1.021683028E1,-2.834550142E-1,2.162538052E0,9.433877945E0
1.022188153E1,-2.834550142E-1,2.198470592E0,9.402735710E0
1.022693272E1,-3.026190102E-1,2.136187553E0,9.433877945E0
1.023197752E1,-2.714774907E-1,2.174515486E0,9.448250771E0
1.023702871E1,-2.858504951E-1,2.152956009E0,9.431482315E0
1.024207991E1,-2.786639929E-1,2.114628077E0,9.421899796E0
1.024713111E1,-2.810595036E-1,2.117023468E0,9.467414856E0
1.025218236E1,-3.169920146E-1,2.136187553E0,9.508137703E0
1.025723356E1,-3.385514915E-1,2.167329073E0,9.556048393E0
1.026228986E1,-3.840659857E-1,2.152956009E0,9.618330956E0
1.026734106E1,-4.343715012E-1,2.126605511E0,9.635099411E0
1.027239226E1,-4.846769869E-1,2.112232447E0,9.644681931E0
1.027744345E1,-5.038409829E-1,2.085881948E0,9.608749390E0
1.028249470E1,-5.254005194E-1,2.093068600E0,9.544070244E0
1.028754590E1,-5.158184767E-1,2.078695536E0,9.560838699E0
1.029259548E1,-4.822815061E-1,2.095463991E0,9.505742073E0
1.029764668E1,-3.912524879E-1,2.097859383E0,9.443459511E0
1.030269788E1,-3.433425128E-1,2.131396532E0,9.484183311E0
1.030774908E1,-2.882460058E-1,2.186492920E0,9.412318230E0
1.031280033E1,-2.858504951E-1,2.208052397E0,9.362012863E0
1.031785153E1,-2.642909884E-1,2.220030069E0,9.362012863E0
1.032289772E1,-2.331494987E-1,2.315850019E0,9.409922600E0
1.032794892E1,-1.972170025E-1,2.330223083E0,9.424295425E0
1.033300012E1,-1.325384974E-1,2.311058998E0,9.409922600E0
1.033805132E1,-7.265099883E-2,2.306267977E0,9.369198799E0
1.034310257E1,-8.702400327E-2,2.315850019E0,9.306916237E0
1.034815377E1,-1.277475059E-1,2.303872585E0,9.280565262E0
1.035320153E1,-1.708665043E-1,2.342200518E0,9.280565262E0
1.035825272E1,-1.948215067E-1,2.335014105E0,9.275774956E0
1.036330392E1,-2.091944963E-1,2.366155386E0,9.330870628E0
1.036835512E1,-1.636800021E-1,2.378133059E0,9.390758514E0
1.037340637E1,-1.109789982E-1,2.421252012E0,9.431482315E0
1.037845757E1,-5.827800184E-2,2.447602510E0,9.527301788E0
1.038350663E1,-1.515899971E-2,2.524258614E0,9.591980934E0
1.038855783E1,6.868349761E-2,2.593728065E0,9.656659126E0
1.039360903E1,7.586999983E-2,2.639242411E0,9.687800407E0
1.039866028E1,1.549215019E-1,2.679965973E0,9.711755753E0
1.040371147E1,2.243909985E-1,2.732666969E0,9.733315468E0
1.040876267E1,2.794874907E-1,2.799741030E0,9.694987297E0
1.041382845E1,3.609344959E-1,2.814114094E0,9.654263496E0
1.041887965E1,4.280084968E-1,2.818905115E0,9.697382927E0
1.042393085E1,4.711275101E-1,2.826091528E0,9.668636322E0
1.042898205E1,4.735229909E-1,2.830882549E0,9.654263496E0
1.043403330E1,4.040535092E-1,2.814114094E0,9.647076607E0
1.043908450E1,4.064489901E-1,2.811718464E0,9.666240692E0
1.044412960E1,3.968670070E-1,2.826091528E0,9.606353760E0
1.044918080E1,2.938604951E-1,2.785367966E0,9.632703781E0
1.045423200E1,2.603234947E-1,2.782972574E0,9.659054756E0
1.045928319E1,2.148090005E-1,2.763808489E0,9.623122215E0
1.046433444E1,1.333619952E-1,2.744644403E0,9.606353760E0
1.046938564E1,6.389249861E-2,2.742249012E0,9.627913475E0
1.047444392E1,1.609500032E-3,2.723084927E0,9.661450386E0
1.047949512E1,-3.432299942E-2,2.711107492E0,9.687800407E0
