"Time (s)","Acceleration x (m/s^2)","Acceleration y (m/s^2)","Acceleration z (m/s^2)"
3.725423400E-2,-1.919581532E0,2.306267977E0,1.095741558E1
4.225277600E-2,-1.974678040E0,2.325432062E0,1.124487591E1
4.726933800E-2,-2.034565449E0,2.277522087E0,1.123289776E1
5.229777600E-2,-2.187877417E0,2.243984938E0,1.093346024E1
5.729631700E-2,-2.398681402E0,2.193679571E0,1.044956970E1
6.233204700E-2,-2.686141491E0,2.162538052E0,9.776433945E0
6.733058800E-2,-2.968810558E0,2.167329073E0,9.177558899E0
7.242746300E-2,-3.150868416E0,2.200865984E0,8.715227127E0
7.748376500E-2,-3.282620907E0,2.227216482E0,8.387043953E0
8.251173400E-2,-3.308971405E0,2.299081564E0,8.288828850E0
8.756803600E-2,-3.335321903E0,2.430834055E0,8.327156067E0
9.261657800E-2,-3.349694967E0,2.469161987E0,8.499632835E0
9.765329700E-2,-3.246688604E0,2.545818090E0,8.746369362E0
1.027177760E-1,-3.035884619E0,2.591332436E0,9.043411255E0
1.077653280E-1,-2.758006573E0,2.605705500E0,9.199118614E0
1.128558490E-1,-2.559180021E0,2.536236048E0,9.350034714E0
1.178624630E-1,-2.389099598E0,2.473953009E0,9.527301788E0
1.228994940E-1,-2.262137890E0,2.394901514E0,9.651867867E0
1.279590260E-1,-2.233392000E0,2.325432062E0,9.711755753E0
1.330034530E-1,-2.274115562E0,2.284708500E0,9.659054756E0
1.380990780E-1,-2.379517555E0,2.210448027E0,9.534488678E0
1.431363690E-1,-2.494501591E0,2.157747030E0,9.338057518E0
1.481865260E-1,-2.678955078E0,2.090672970E0,9.170372963E0
1.532373070E-1,-2.789148092E0,2.030785561E0,9.038619995E0
1.582886610E-1,-2.861012936E0,2.037971973E0,8.897285461E0
1.633405880E-1,-2.937669039E0,2.052345037E0,8.887703896E0
1.683731920E-1,-2.954437494E0,2.081090927E0,8.983523369E0
1.734427240E-1,-2.906527519E0,2.090672970E0,9.060179710E0
1.784850670E-1,-2.949646473E0,2.071508884E0,9.108089447E0
1.835662650E-1,-2.906527519E0,2.088277578E0,9.124857903E0
1.886146510E-1,-2.861012936E0,2.040367603E0,9.172767639E0
1.936697030E-1,-2.746028900E0,2.059531450E0,9.129649162E0
1.986836090E-1,-2.671768427E0,2.100255013E0,9.110485077E0
2.037416820E-1,-2.609485388E0,2.140978575E0,9.041015625E0
2.087931400E-1,-2.604694605E0,2.220030069E0,8.981127739E0
2.138371510E-1,-2.566366434E0,2.270335436E0,8.942799568E0
2.188855880E-1,-2.513665438E0,2.335014105E0,8.947590828E0
2.239334010E-1,-2.444195986E0,2.332618475E0,9.007478714E0
2.289886610E-1,-2.456173420E0,2.327827454E0,9.096112251E0
2.340692340E-1,-2.468151093E0,2.270335436E0,9.270983696E0
2.391197550E-1,-2.477732897E0,2.210448027E0,9.486578941E0
2.441747030E-1,-2.523247480E0,2.133791924E0,9.639890671E0
2.492261610E-1,-2.607089996E0,2.102650404E0,9.740501404E0
2.542756920E-1,-2.683746099E0,2.028389931E0,9.764456749E0
2.593252760E-1,-2.693327904E0,1.937361002E0,9.726128578E0
2.643789740E-1,-2.758006573E0,1.884660006E0,9.594375610E0
2.694275150E-1,-2.781961441E0,1.887055516E0,9.429086685E0
2.745328800E-1,-2.817893982E0,1.918197036E0,9.268588066E0
2.795732970E-1,-2.789148092E0,1.997248530E0,9.139230728E0
2.845523070E-1,-2.774775028E0,2.049949408E0,9.052992821E0
2.896026190E-1,-2.748424530E0,2.136187553E0,8.976337433E0
2.946500670E-1,-2.722074032E0,2.220030069E0,8.890098572E0
2.997160050E-1,-2.650208950E0,2.277522087E0,8.844584465E0
3.047566300E-1,-2.520852089E0,2.318245411E0,8.851771355E0
3.098068900E-1,-2.420241117E0,2.318245411E0,8.921240807E0
3.148799630E-1,-2.396286011E0,2.325432062E0,8.976337433E0
3.199202760E-1,-2.379517555E0,2.282313108E0,9.036224365E0
3.249586090E-1,-2.417845488E0,2.220030069E0,9.148813248E0
3.300384530E-1,-2.422636509E0,2.176911116E0,9.314102173E0
3.350753280E-1,-2.460964441E0,2.131396532E0,9.529697418E0
3.401108490E-1,-2.506479025E0,2.088277578E0,9.738105774E0
3.451744420E-1,-2.542411566E0,2.095463991E0,9.893813133E0
3.502094940E-1,-2.578344107E0,2.025994539E0,9.982446671E0
3.552832440E-1,-2.597507954E0,1.973293543E0,9.968073845E0
3.603417340E-1,-2.583134890E0,1.934965491E0,9.843507767E0
3.653812650E-1,-2.611881018E0,1.937361002E0,9.683009148E0
3.704408490E-1,-2.678955078E0,1.980479956E0,9.500951767E0
3.754883490E-1,-2.690932512E0,2.059531450E0,9.302124977E0
3.805419940E-1,-2.688536882E0,2.145769596E0,9.100902557E0
3.855944940E-1,-2.690932512E0,2.241589546E0,8.952382088E0
3.906440260E-1,-2.626254082E0,2.270335436E0,8.885308266E0
3.956947030E-1,-2.554389000E0,2.303872585E0,8.811047554E0
4.007638690E-1,-2.477732897E0,2.267940044E0,8.801465034E0
4.058068900E-1,-2.396286011E0,2.277522087E0,8.849375725E0
4.108570470E-1,-2.365144491E0,2.258358002E0,8.954777718E0
4.159147550E-1,-2.362749100E0,2.181701899E0,9.220678329E0
4.209562650E-1,-2.302861452E0,2.150560617E0,9.536884308E0
4.260049630E-1,-2.274115562E0,2.162538052E0,9.838717461E0
4.310713690E-1,-2.238183022E0,2.136187553E0,1.010222244E1
4.361229840E-1,-2.223809958E0,2.102650404E0,1.029386234E1
4.411709530E-1,-2.245369434E0,2.023598909E0,1.034656334E1
4.462174630E-1,-2.269324541E0,1.925383449E0,1.025074291E1
4.512618900E-1,-2.281301975E0,1.884660006E0,1.010222244E1
4.564106400E-1,-2.290884018E0,1.740929961E0,9.965678215E0
4.614135050E-1,-2.310048103E0,1.681042552E0,9.987237930E0
4.663902240E-1,-2.326816559E0,1.635527968E0,1.007108021E1
4.714607440E-1,-2.401077032E0,1.697811007E0,1.017169189E1
4.765156400E-1,-2.477732897E0,1.755303025E0,1.025074291E1
4.815732440E-1,-2.566366434E0,1.719370484E0,1.025313854E1
4.866199110E-1,-2.592716932E0,1.767280459E0,1.023397446E1
4.916702760E-1,-2.561575413E0,1.812795043E0,1.023876572E1
4.967217860E-1,-2.482523918E0,1.872682452E0,1.019564629E1
5.017814740E-1,-2.410659075E0,1.915801525E0,1.007587147E1
5.068148070E-1,-2.348376036E0,1.987666488E0,9.915372849E0
5.119200150E-1,-2.338793993E0,2.059531450E0,9.807575226E0
5.169324630E-1,-2.365144491E0,2.097859383E0,9.666240692E0
5.219692340E-1,-2.350771427E0,2.224821091E0,9.551257133E0
5.270240260E-1,-2.355562449E0,2.239193916E0,9.402735710E0
5.320836090E-1,-2.381912947E0,2.222425461E0,9.400340080E0
5.371214220E-1,-2.448987007E0,2.196074963E0,9.421899796E0
5.421829840E-1,-2.472942114E0,2.176911116E0,9.453041077E0
5.472292860E-1,-2.549597979E0,2.148164988E0,9.481787682E0
5.522750670E-1,-2.611881018E0,2.107441425E0,9.479392052E0
5.573294420E-1,-2.726865053E0,2.090672970E0,9.505742073E0
5.623849630E-1,-2.896945477E0,2.069113493E0,9.500951767E0
5.674383490E-1,-2.987974405E0,2.097859383E0,9.414713860E0
5.724819420E-1,-3.026302576E0,2.129000902E0,9.247028351E0
5.775400150E-1,-3.076607943E0,2.184097528E0,9.124857903E0
5.825857440E-1,-3.093376398E0,2.162538052E0,9.062575340E0
5.876377760E-1,-3.019115925E0,2.181701899E0,9.088925362E0
5.926997030E-1,-2.952042103E0,2.210448027E0,9.177558899E0
5.977175670E-1,-2.875386000E0,2.215239048E0,9.304520607E0
6.027635570E-1,-2.861012936E0,2.265544415E0,9.407526970E0
6.078183490E-1,-2.822685003E0,2.308663607E0,9.388362885E0
6.128737130E-1,-2.722074032E0,2.335014105E0,9.414713860E0
6.179179320E-1,-2.645417929E0,2.378133059E0,9.527301788E0
6.229694420E-1,-2.676559448E0,2.466766596E0,9.536884308E0
6.280193380E-1,-2.719678402E0,2.521862984E0,9.479392052E0
6.330710570E-1,-2.746028900E0,2.553004503E0,9.409922600E0
6.381467860E-1,-2.724469423E0,2.519467592E0,9.405131340E0
6.431661090E-1,-2.760401964E0,2.471557617E0,9.311706543E0
6.482336610E-1,-2.887363434E0,2.418856382E0,9.091320992E0
6.532509010E-1,-3.122122526E0,2.243984938E0,8.861352921E0
6.583400150E-1,-3.263457060E0,2.138582945E0,8.844584465E0
6.633894940E-1,-3.282620907E0,2.172120094E0,8.355902672E0
6.684138690E-1,-3.627573013E0,2.064322472E0,5.395064354E0
6.734919420E-1,-4.034808159E0,2.217634439E0,4.182941437E0
6.785068380E-1,-3.826399565E0,2.529049397E0,6.037058353E0
6.835939220E-1,-3.491029501E0,2.766204119E0,7.654020786E0
6.886386610E-1,-3.440723896E0,2.885978937E0,8.432558060E0
6.936938690E-1,-3.270643473E0,2.883583546E0,9.062575340E0
6.987372550E-1,-3.045466423E0,2.830882549E0,9.831530571E0
7.037919420E-1,-2.896945477E0,2.845255613E0,1.044477844E1
7.088279840E-1,-2.908922911E0,2.790158987E0,1.051185226E1
7.138922030E-1,-3.062235117E0,2.706316471E0,1.021001911E1
7.189681400E-1,-3.261061430E0,2.612891912E0,9.944119453E0
7.240165260E-1,-3.553312540E0,2.555399895E0,9.577607155E0
7.290636610E-1,-3.821608543E0,2.500303507E0,9.270983696E0
7.340862650E-1,-3.953361034E0,2.361364603E0,8.909262657E0
7.391394420E-1,-4.032412529E0,2.164933443E0,8.509214401E0
7.441955880E-1,-4.001270771E0,2.049949408E0,8.092397690E0
7.492419420E-1,-3.900660038E0,2.100255013E0,7.522268295E0
7.542902760E-1,-3.709019899E0,2.212843418E0,6.935370922E0
7.593426720E-1,-3.543730497E0,2.356573582E0,6.628746986E0
7.644204320E-1,-3.455096960E0,2.464370966E0,6.544904709E0
7.694420470E-1,-3.330530882E0,2.564981937E0,6.552091122E0
8.217756920E-1,-1.533905983E0,1.875077963E0,8.794279099E0
8.267748070E-1,-1.462041020E0,1.908614993E0,9.096112251E0
8.317738690E-1,-1.359034538E0,1.865496039E0,9.498556137E0
8.368649630E-1,-1.282378554E0,1.889451027E0,9.958492279E0
8.419285050E-1,-1.169790030E0,1.887055516E0,1.037051773E1
8.469663690E-1,-1.050014973E0,1.836750031E0,1.063881397E1
8.520299110E-1,-9.446129799E-1,1.808004022E0,1.077535725E1
8.570597550E-1,-9.206579924E-1,1.721765995E0,1.088075924E1
8.621232970E-1,-9.110760093E-1,1.587617993E0,1.080410385E1
8.671622550E-1,-9.997094870E-1,1.482216001E0,1.065318680E1
8.722268380E-1,-1.129066467E0,1.470238447E0,1.055257607E1
8.772773070E-1,-1.306333542E0,1.487007022E0,1.038968182E1
8.823161610E-1,-1.390176058E0,1.429515004E0,1.010461712E1
8.873981400E-1,-1.474018455E0,1.381605029E0,9.841112137E0
8.924517340E-1,-1.524324059E0,1.362440944E0,9.647076607E0
8.974895990E-1,-1.524324059E0,1.350463510E0,9.457832336E0
9.025068900E-1,-1.502764463E0,1.362440944E0,9.311706543E0
9.075648590E-1,-1.485996008E0,1.431910515E0,9.148813248E0
9.126420470E-1,-1.474018455E0,1.491798043E0,8.990710258E0
9.177026190E-1,-1.402153492E0,1.491798043E0,9.005083084E0
9.227155360E-1,-1.301542521E0,1.487007022E0,9.091320992E0
9.278089740E-1,-1.203326941E0,1.424723983E0,9.270983696E0
9.328557970E-1,-1.030851007E0,1.400768995E0,9.508137703E0
9.378986090E-1,-7.769280076E-1,1.448678970E0,9.896208763E0
9.429544940E-1,-5.301914811E-1,1.513357520E0,1.033698082E1
9.479751720E-1,-3.337605000E-1,1.513357520E0,1.061006832E1
9.530589220E-1,-1.133745015E-1,1.498984456E0,1.077535725E1
9.580656920E-1,5.670600012E-2,1.419932961E0,1.083284950E1
9.631244940E-1,1.668989956E-1,1.352859020E0,1.074182034E1
9.681834010E-1,1.812720001E-1,1.269016504E0,1.055497169E1
9.732343380E-1,3.514650092E-2,1.213919997E0,1.029146671E1
9.782775670E-1,-2.499179989E-1,1.168405533E0,1.000400639E1
9.833504840E-1,-5.924745202E-1,1.166010022E0,9.855485916E0
9.883873070E-1,-8.440020084E-1,1.168405533E0,9.726128578E0
9.934634530E-1,-9.853364825E-1,1.163614511E0,9.649472237E0
9.985055360E-1,-1.073969960E0,1.168405533E0,9.694987297E0
1.003560276E0,-1.059597015E0,1.180382967E0,9.726128578E0
1.008610536E0,-1.042828441E0,1.187569499E0,9.766852379E0
1.013648349E0,-1.040433049E0,1.177987456E0,9.774038315E0
1.018708609E0,-9.038894773E-1,1.154032469E0,9.774038315E0
1.023753974E0,-7.769280076E-1,1.106122494E0,9.718941689E0
1.028795640E0,-6.188250184E-1,1.108518004E0,9.615935326E0
1.033867411E0,-4.247894883E-1,1.173196554E0,9.445855141E0
1.038901109E0,-3.217830062E-1,1.194756031E0,9.230259895E0
1.043951474E0,-2.930369973E-1,1.199547052E0,9.060179710E0
1.048988192E0,-3.145965040E-1,1.225897551E0,9.007478714E0
1.054038140E0,-3.649019897E-1,1.242666006E0,9.052992821E0
1.059119286E0,-4.080210030E-1,1.283389449E0,9.124857903E0
1.064148349E0,-4.080210030E-1,1.307344556E0,9.201514244E0
1.069210484E0,-2.954325080E-1,1.247457027E0,9.333266258E0
1.074274130E0,-7.983750105E-2,1.115704536E0,9.510533333E0
1.079313817E0,6.389249861E-2,9.983249903E-1,9.596771240E0
1.084366526E0,1.980405003E-1,9.168779850E-1,9.704568863E0
1.089416317E0,1.956450045E-1,9.120870233E-1,9.848299026E0
1.094469547E0,1.333619952E-1,9.049004912E-1,1.006868458E1
1.099533349E0,7.826550305E-2,8.953185081E-1,1.025313854E1
1.104582411E0,2.796000056E-2,9.168779850E-1,1.038249588E1
1.109630953E0,-1.276350021E-2,9.312509894E-1,1.036572742E1
1.114683713E0,-7.744199783E-2,8.402220011E-1,1.027469826E1
1.119729234E0,-1.828439981E-1,7.755435109E-1,1.020043755E1
1.124784755E0,-2.427314967E-1,7.611705065E-1,1.021720600E1
1.129834338E0,-2.762685120E-1,7.180514932E-1,1.020043755E1
1.134894963E0,-2.834550142E-1,6.749324799E-1,1.015492344E1
1.139939390E0,-3.122009933E-1,6.270225048E-1,1.009982681E1
1.144994911E0,-3.433425128E-1,5.383890271E-1,1.006628990E1
1.150049026E0,-3.217830062E-1,4.425689876E-1,1.010222244E1
1.155097255E0,-3.289695084E-1,4.425689876E-1,1.023637009E1
1.160143765E0,-2.666864991E-1,4.737105072E-1,1.043040562E1
1.165193817E0,-2.187764943E-1,5.096430182E-1,1.059329987E1
1.170253401E0,-2.091944963E-1,5.359935164E-1,1.069870186E1
1.175300588E0,-1.540980041E-1,5.719259977E-1,1.074900723E1
1.180331265E0,-6.067350134E-2,6.126495004E-1,1.073702908E1
1.185400640E0,1.119150035E-2,6.102539897E-1,1.068193340E1
1.190416682E0,3.993749991E-2,6.246269941E-1,1.063162708E1
1.195465432E0,6.389249861E-2,6.413955092E-1,1.051903915E1
1.200517932E0,5.191500112E-2,6.629549861E-1,1.032979488E1
1.205579807E0,-3.181499895E-3,6.701415181E-1,1.007587147E1
1.210712567E0,-9.421049803E-2,6.509774923E-1,9.800389290E0
1.215682724E0,-2.044035047E-1,6.533730030E-1,9.584794044E0
1.220731942E0,-3.265739977E-1,6.605594754E-1,9.359617233E0
1.225775328E0,-4.463489950E-1,6.701415181E-1,9.110485077E0
1.230829963E0,-5.277959704E-1,7.827299833E-1,8.961963654E0
1.235910224E0,-5.445644855E-1,8.713635206E-1,8.916449547E0
1.240964234E0,-4.798859954E-1,9.072960019E-1,8.899681091E0
1.246022672E0,-4.487445056E-1,9.528105259E-1,8.981127739E0
1.251050849E0,-4.104165137E-1,9.671834707E-1,9.122462273E0
1.256094703E0,-3.625065088E-1,9.360420108E-1,9.239842415E0
1.261150744E0,-3.074100018E-1,9.120870233E-1,9.362012863E0
1.266211734E0,-3.122009933E-1,9.049004912E-1,9.615935326E0
1.271251161E0,-2.882460058E-1,8.498039842E-1,9.874649048E0
1.276311994E0,-2.906414866E-1,8.378264904E-1,1.016929626E1
1.281358661E0,-2.355449945E-1,8.306400180E-1,1.039686871E1
1.286407828E0,-2.666864991E-1,8.569905162E-1,1.049029255E1
1.291461734E0,-2.978279889E-1,9.072960019E-1,1.050706196E1
1.296538505E0,-2.547090054E-1,8.665724993E-1,1.043280125E1
1.301567619E0,-2.427314967E-1,8.929229975E-1,1.022439289E1
1.306617203E0,-2.762685120E-1,9.384375215E-1,9.965678215E0
1.311668192E0,-3.002234995E-1,1.010302544E0,9.764456749E0
1.316719599E0,-3.649019897E-1,1.072585464E0,9.539279938E0
1.321766890E0,-3.816705048E-1,1.146846056E0,9.318893433E0
1.326820328E0,-4.367670119E-1,1.228292942E0,9.179954529E0
1.331876369E0,-4.990499914E-1,1.240270495E0,9.055388451E0
1.336927880E0,-5.230050087E-1,1.249852538E0,9.084134102E0
1.341981942E0,-5.469599962E-1,1.292971492E0,9.064970970E0
1.347043088E0,-5.852879882E-1,1.276203036E0,9.165581703E0
1.352111630E0,-5.589374900E-1,1.283389449E0,9.294938087E0
1.357114026E0,-5.158184767E-1,1.280994058E0,9.395549774E0
1.362163713E0,-3.960435092E-1,1.233083963E0,9.419504166E0
1.367215172E0,-3.553200066E-1,1.187569499E0,9.421899796E0
1.372250640E0,-2.858504951E-1,1.134868503E0,9.436272621E0
1.377317203E0,-2.762685120E-1,1.089354038E0,9.462623596E0
1.382355432E0,-3.193874955E-1,1.077376485E0,9.503347397E0
1.387444390E0,-3.577154875E-1,1.029466510E0,9.580002785E0
1.392461526E0,-3.625065088E-1,1.031862020E0,9.654263496E0
1.397516578E0,-3.768795133E-1,1.053421497E0,9.774038315E0
1.402571005E0,-3.888570070E-1,1.041443944E0,9.845903397E0
1.407643713E0,-4.415580034E-1,1.065399051E0,9.889022827E0
1.412753088E0,-4.631175101E-1,1.072585464E0,9.987237930E0
1.417725015E0,-5.038409829E-1,1.082167506E0,1.007108021E1
1.422772359E0,-5.182139874E-1,1.079771996E0,1.019325066E1
1.427843349E0,-5.397735238E-1,1.039048553E0,1.027230263E1
1.432889234E0,-4.870724976E-1,9.863474965E-1,1.026032543E1
1.437946369E0,-3.768795133E-1,9.863474965E-1,1.021720600E1
1.442992099E0,-3.265739977E-1,9.671834707E-1,1.014294529E1
1.448040119E0,-3.193874955E-1,9.911385179E-1,1.011419964E1
1.453096942E0,-3.122009933E-1,1.022279978E0,1.005431175E1
1.458135067E0,-3.145965040E-1,1.031862020E0,9.972865105E0
1.463190067E0,-3.672975004E-1,1.041443944E0,9.891418457E0
1.468240536E0,-4.439535141E-1,1.058212519E0,9.790806770E0
1.473314286E0,-5.301914811E-1,1.024675488E0,9.733315468E0
1.478366057E0,-5.541465282E-1,9.791610241E-1,9.723732948E0
1.483409390E0,-5.972654819E-1,9.408329725E-1,9.711755753E0
1.488462203E0,-6.331980228E-1,8.881319761E-1,9.649472237E0
1.493501057E0,-5.972654819E-1,8.402220011E-1,9.671031952E0
1.498583349E0,-5.637285113E-1,8.186625242E-1,9.706964493E0
1.503622567E0,-5.445644855E-1,7.994984984E-1,9.778829575E0
1.508676786E0,-5.110275149E-1,7.779390216E-1,9.855485916E0
1.513715328E0,-4.367670119E-1,7.827299833E-1,9.970469475E0
1.518747307E0,-4.032300115E-1,8.306400180E-1,1.007826710E1
1.523797463E0,-3.098055124E-1,9.288554788E-1,1.007108021E1
1.528880849E0,-2.259629965E-1,1.007907033E0,1.008066273E1
1.533897307E0,-1.253519952E-1,1.053421497E0,1.009743118E1
1.538938244E0,-8.702400327E-2,1.096540451E0,1.004952145E1
1.544062828E0,-5.588249862E-2,1.137264013E0,1.003993893E1
1.549059390E0,-9.900149703E-2,1.163614511E0,9.994424820E0
1.554095224E0,-1.756574959E-1,1.127681971E0,9.963282585E0
1.559134390E0,-1.852394938E-1,1.106122494E0,9.951305389E0
1.564191213E0,-2.163809985E-1,1.067794442E0,9.905791283E0
1.569224182E0,-2.810595036E-1,1.019884467E0,9.809970856E0
1.574300015E0,-2.930369973E-1,1.000720501E0,9.699777603E0
1.579340640E0,-2.451270074E-1,9.623925090E-1,9.615935326E0
1.584401057E0,-3.026190102E-1,9.432284832E-1,9.457832336E0
1.589468557E0,-3.098055124E-1,9.815564752E-1,9.503347397E0
1.594490744E0,-3.289695084E-1,9.935340285E-1,9.613539696E0
1.599563661E0,-3.577154875E-1,1.039048553E0,9.663845062E0
1.604589599E0,-3.649019897E-1,1.041443944E0,9.740501404E0
1.609678869E0,-4.750950038E-1,1.053421497E0,9.807575226E0
1.614713661E0,-5.086320043E-1,9.671834707E-1,9.860276222E0
1.619764651E0,-4.918634892E-1,8.426175117E-1,9.848299026E0
1.624817515E0,-4.726994932E-1,8.066849709E-1,9.867463112E0
1.629882463E0,-4.152075052E-1,8.162670135E-1,9.877044678E0
1.634930797E0,-3.936479986E-1,8.234534860E-1,9.872254372E0
1.639982880E0,-3.696930110E-1,8.282445073E-1,9.896208763E0
1.645034234E0,-3.289695084E-1,8.521994948E-1,9.984842300E0
1.650055276E0,-3.169920146E-1,9.120870233E-1,1.003514767E1
1.655134130E0,-2.954325080E-1,9.001095295E-1,1.007587147E1
1.660188974E0,-2.810595036E-1,9.336465001E-1,1.007108021E1
1.665232099E0,-2.930369973E-1,9.216690063E-1,1.008066273E1
1.670275276E0,-2.738730013E-1,8.857365251E-1,9.970469475E0
1.675339338E0,-2.834550142E-1,8.474084735E-1,9.833926201E0
1.680381682E0,-3.002234995E-1,7.994984984E-1,9.747688293E0
1.685437724E0,-3.074100018E-1,7.683569789E-1,9.615935326E0
1.690464182E0,-3.098055124E-1,7.635660172E-1,9.484183311E0
1.695543765E0,-3.385514915E-1,7.372155190E-1,9.445855141E0
1.700586838E0,-3.217830062E-1,7.707524896E-1,9.431482315E0
1.705642463E0,-2.978279889E-1,8.617814779E-1,9.524906158E0
1.710685901E0,-2.523134947E-1,9.049004912E-1,9.611144066E0
1.715737619E0,-2.523134947E-1,1.012698054E0,9.733315468E0
1.720782619E0,-2.163809985E-1,1.098935962E0,9.836321831E0
1.725832880E0,-1.253519952E-1,1.180382967E0,9.896208763E0
1.730879078E0,-6.306900084E-2,1.185173988E0,9.908186913E0
1.735937203E0,-5.109149963E-2,1.168405533E0,9.848299026E0
1.740966422E0,-9.421049803E-2,1.137264013E0,9.704568863E0
1.746097776E0,-1.780530065E-1,1.074980974E0,9.589585304E0
1.751089390E0,-2.475225031E-1,1.003116012E0,9.438668251E0
1.756132463E0,-3.481335044E-1,9.504150152E-1,9.338057518E0
1.761171734E0,-4.008345008E-1,9.096915126E-1,9.328475952E0
1.766222099E0,-4.032300115E-1,8.761544824E-1,9.311706543E0
1.771289130E0,-4.463489950E-1,8.426175117E-1,9.282960892E0
1.776336578E0,-4.750950038E-1,8.306400180E-1,9.292543411E0
1.781378192E0,-4.463489950E-1,8.521994948E-1,9.378781319E0
1.786462255E0,-4.487445056E-1,8.857365251E-1,9.493764877E0
1.791529755E0,-4.367670119E-1,9.360420108E-1,9.601562500E0
1.796577567E0,-4.176029861E-1,9.719744921E-1,9.699777603E0
1.801622880E0,-3.744840026E-1,1.024675488E0,9.778829575E0
1.806676890E0,-2.954325080E-1,1.058212519E0,9.819553375E0
1.811726526E0,-2.115900069E-1,9.983249903E-1,9.855485916E0
1.816771265E0,-8.702400327E-2,9.671834707E-1,9.877044678E0
1.821828349E0,-5.576999858E-3,9.408329725E-1,9.843507767E0
1.826878557E0,2.796000056E-2,8.665724993E-1,9.855485916E0
1.831937880E0,1.213845015E-1,9.264600277E-1,9.917768478E0
1.836998557E0,1.621080041E-1,9.384375215E-1,1.008545303E1
1.842041005E0,1.405484974E-1,9.719744921E-1,1.020522881E1
1.847091317E0,1.525260061E-1,9.599969983E-1,1.015731812E1
1.852144911E0,9.024299681E-2,8.617814779E-1,1.013336372E1
1.857198505E0,7.347449660E-2,7.947074771E-1,1.003035736E1
1.862252151E0,1.609500032E-3,7.467975020E-1,9.910581589E0
1.867305744E0,-4.869600013E-2,6.773279905E-1,9.809970856E0
1.872359338E0,-8.223299682E-2,6.940965056E-1,9.697382927E0
1.877368036E0,-1.205610037E-1,7.563794851E-1,9.632703781E0
1.882421630E0,-1.684709936E-1,7.875210047E-1,9.680614471E0
1.887475276E0,-2.187764943E-1,8.593860269E-1,9.704568863E0
1.892528869E0,-2.283585072E-1,9.408329725E-1,9.757269859E0
1.897582463E0,-2.523134947E-1,9.815564752E-1,9.821948051E0
1.902636057E0,-2.403360009E-1,1.034257531E0,9.889022827E0
1.907670432E0,-1.972170025E-1,1.051025987E0,9.965678215E0
1.912724026E0,-1.349339932E-1,1.060608029E0,9.932141304E0
1.917777619E0,-4.390500113E-2,1.067794442E0,9.853090286E0
1.922831265E0,7.107900083E-2,1.074980974E0,9.795598030E0
1.927884859E0,1.836674958E-1,1.098935962E0,9.838717461E0
1.932938453E0,2.579280138E-1,1.163614511E0,9.910581589E0
1.937976578E0,3.226065040E-1,1.206733465E0,9.977656364E0
1.943030172E0,4.016579986E-1,1.168405533E0,9.982446671E0
1.948083765E0,3.681209981E-1,1.089354038E0,9.980051041E0
1.953137411E0,3.345839977E-1,1.015093446E0,9.884231567E0
1.958191005E0,2.627190053E-1,9.360420108E-1,9.790806770E0
1.963244651E0,1.692945063E-1,8.282445073E-1,9.762061119E0
1.968290588E0,4.951950163E-2,7.827299833E-1,9.759665489E0
1.973344182E0,-4.150950164E-2,7.539839745E-1,9.793202400E0
1.978397776E0,-1.421204954E-1,8.210579753E-1,9.843507767E0
1.983451422E0,-1.708665043E-1,9.144824743E-1,9.886627197E0
1.988505015E0,-2.020079941E-1,9.623925090E-1,9.939328194E0
1.993558609E0,-1.948215067E-1,9.767655134E-1,9.927350044E0
1.998604182E0,-1.109789982E-1,1.000720501E0,9.836321831E0
2.003657776E0,4.004999995E-3,1.065399051E0,9.771642685E0
2.008711369E0,5.670600012E-2,1.070189953E0,9.680614471E0
2.013765015E0,8.066099882E-2,1.017488956E0,9.615935326E0
2.018818609E0,5.910149962E-2,9.983249903E-1,9.596771240E0
2.023872203E0,-3.181499895E-3,9.959294796E-1,9.644681931E0
2.028901474E0,-2.474099956E-2,9.935340285E-1,9.702173233E0
2.033955067E0,-4.390500113E-2,9.911385179E-1,9.690196037E0
2.039008661E0,-5.109149963E-2,1.012698054E0,9.742897034E0
2.044062307E0,-4.390500113E-2,9.959294796E-1,9.788411140E0
2.049115901E0,-8.941949904E-2,9.576014876E-1,9.766852379E0
2.054169494E0,-8.702400327E-2,9.480195045E-1,9.781225204E0
2.059233922E0,-1.732620001E-1,8.905274868E-1,9.721337318E0
2.064287515E0,-1.924259961E-1,8.282445073E-1,9.716546059E0
2.069341161E0,-1.636800021E-1,8.641769886E-1,9.647076607E0
2.074394755E0,-1.277475059E-1,9.096915126E-1,9.548861504E0
2.079448349E0,-5.348699912E-2,9.456239939E-1,9.441063881E0
2.084501942E0,-3.911399841E-2,9.959294796E-1,9.402735710E0
2.089488974E0,-4.869600013E-2,1.046234965E0,9.405131340E0
2.094542567E0,-5.109149963E-2,1.019884467E0,9.429086685E0
2.099596161E0,1.609500032E-3,1.024675488E0,9.393154144E0
2.104649807E0,-3.181499895E-3,1.058212519E0,9.400340080E0
2.109703401E0,-4.150950164E-2,1.010302544E0,9.445855141E0
2.114756994E0,-5.348699912E-2,9.935340285E-1,9.445855141E0
2.119817776E0,-1.253519952E-1,9.647880197E-1,9.457832336E0
2.124871369E0,-2.020079941E-1,9.288554788E-1,9.472205162E0
2.129924963E0,-2.020079941E-1,8.857365251E-1,9.548861504E0
2.134978609E0,-1.876350045E-1,8.737589717E-1,9.603958130E0
2.140032203E0,-1.780530065E-1,8.210579753E-1,9.726128578E0
2.145085797E0,-1.588889956E-1,8.066849709E-1,9.838717461E0
2.150141161E0,-1.277475059E-1,8.042895198E-1,9.896208763E0
2.155194755E0,-1.085835025E-1,7.875210047E-1,1.003275204E1
2.160248349E0,-1.157699972E-1,7.731480002E-1,1.011659527E1
2.165301994E0,-7.744199783E-2,8.138715029E-1,1.016450500E1
2.170355588E0,-5.348699912E-2,8.857365251E-1,1.017648220E1
2.175409182E0,-7.859999896E-4,9.623925090E-1,1.008305836E1
2.180461057E0,1.358699985E-2,1.003116012E0,1.001837921E1
2.185514651E0,1.598249935E-2,9.623925090E-1,9.912977219E0
2.190568244E0,3.993749991E-2,9.264600277E-1,9.774038315E0
2.195621890E0,4.951950163E-2,9.552059770E-1,9.611144066E0
2.200675484E0,6.389249861E-2,9.312509894E-1,9.448250771E0
2.205729078E0,-7.972500287E-3,9.072960019E-1,9.330870628E0
2.210747359E0,-6.067350134E-2,8.809455037E-1,9.290147781E0
2.215800953E0,-1.157699972E-1,8.929229975E-1,9.242237091E0
2.220854547E0,-2.020079941E-1,9.312509894E-1,9.263796806E0
2.225908192E0,-2.307540029E-1,9.647880197E-1,9.414713860E0
2.230961786E0,-1.996124983E-1,9.863474965E-1,9.548861504E0
2.236015380E0,-1.397249997E-1,9.839519858E-1,9.663845062E0
2.241063088E0,-6.306900084E-2,9.911385179E-1,9.809970856E0
2.246116682E0,2.077350020E-2,9.839519858E-1,9.939328194E0
2.251170328E0,1.141979992E-1,9.240645170E-1,1.001598358E1
2.256223922E0,1.573169976E-1,8.593860269E-1,1.007826710E1
2.261277515E0,1.405484974E-1,7.803344727E-1,1.008305836E1
2.266331109E0,7.347449660E-2,7.779390216E-1,1.013096809E1
2.271356734E0,-2.953200042E-2,7.659615278E-1,1.007587147E1
2.276410328E0,-8.462850004E-2,7.851254940E-1,1.001119328E1
2.281463922E0,-1.421204954E-1,8.042895198E-1,9.948909760E0
2.286517567E0,-1.517024934E-1,7.707524896E-1,9.845903397E0
2.291571161E0,-1.612845063E-1,7.755435109E-1,9.776433945E0
2.296624755E0,-1.517024934E-1,7.923120260E-1,9.790806770E0
2.301661682E0,-1.540980041E-1,8.090804815E-1,9.824343681E0
2.306715276E0,-1.013970003E-1,8.378264904E-1,9.884231567E0
2.311768869E0,-6.785999984E-2,8.450130224E-1,9.889022827E0
2.316822515E0,-3.432299942E-2,8.713635206E-1,9.929745674E0
2.321876109E0,3.514650092E-2,8.665724993E-1,9.992029190E0
2.326929703E0,3.993749991E-2,8.785499930E-1,1.005191612E1
2.331959078E0,7.347449660E-2,8.689680099E-1,1.000640202E1
2.337012672E0,7.826550305E-2,8.929229975E-1,9.910581589E0
2.342066265E0,3.275100142E-2,8.785499930E-1,9.817157745E0
2.347119911E0,1.837800071E-2,8.138715029E-1,9.762061119E0
2.352173505E0,-6.546449661E-2,8.378264904E-1,9.714151382E0
2.357227099E0,-9.181500226E-2,8.138715029E-1,9.635099411E0
2.362262932E0,-1.445160061E-1,8.426175117E-1,9.608749390E0
2.367316526E0,-1.397249997E-1,8.330355287E-1,9.524906158E0
2.372370119E0,-9.421049803E-2,8.186625242E-1,9.481787682E0
2.377423765E0,-6.785999984E-2,8.426175117E-1,9.465019226E0
2.382477359E0,-7.025550306E-2,8.569905162E-1,9.505742073E0
2.387530953E0,-5.348699912E-2,8.545950055E-1,9.623122215E0
2.392583609E0,-3.911399841E-2,9.096915126E-1,9.742897034E0
2.397637203E0,-3.192749992E-2,9.552059770E-1,9.860276222E0
2.402690797E0,1.358699985E-2,9.120870233E-1,9.956096649E0
2.407744442E0,2.796000056E-2,9.120870233E-1,1.000161076E1
2.412798036E0,2.556449920E-2,8.593860269E-1,1.008066273E1
2.417851630E0,-2.234550007E-2,7.851254940E-1,1.015013218E1
2.422885484E0,-7.025550306E-2,7.659615278E-1,1.011180401E1
2.427939078E0,-5.588249862E-2,7.036784887E-1,1.011419964E1
2.432992672E0,-1.133745015E-1,6.413955092E-1,1.005910301E1
2.438046317E0,-1.493069977E-1,6.126495004E-1,9.965678215E0
2.443099911E0,-1.684709936E-1,5.575529933E-1,9.826739311E0
2.448153505E0,-2.163809985E-1,5.575529933E-1,9.728524208E0
2.453153869E0,-2.187764943E-1,5.862990022E-1,9.594375610E0
2.458207463E0,-2.235675007E-1,6.294180155E-1,9.565629959E0
2.463261057E0,-2.331494987E-1,6.964920163E-1,9.601562500E0
2.468314703E0,-2.211720049E-1,7.467975020E-1,9.639890671E0
2.473368297E0,-1.972170025E-1,8.162670135E-1,9.685404778E0
2.478421890E0,-1.253519952E-1,8.378264904E-1,9.726128578E0
2.483469599E0,-1.037925035E-1,8.617814779E-1,9.809970856E0
2.488523192E0,-8.462850004E-2,8.761544824E-1,9.860276222E0
2.493576786E0,-6.306900084E-2,8.713635206E-1,9.946514130E0
2.498630432E0,-4.150950164E-2,8.210579753E-1,9.970469475E0
2.503684026E0,-6.067350134E-2,7.635660172E-1,1.004473019E1
2.508737619E0,-3.911399841E-2,7.444019914E-1,1.003275204E1
2.513796422E0,-3.192749992E-2,7.036784887E-1,1.005670738E1
2.518850015E0,-9.660600126E-2,7.036784887E-1,1.008305836E1
2.523903609E0,-1.517024934E-1,6.821190119E-1,1.005910301E1
2.528957255E0,-1.972170025E-1,6.629549861E-1,1.002796173E1
2.534010849E0,-2.307540029E-1,6.893054843E-1,1.002077484E1
2.539064442E0,-2.427314967E-1,6.917009950E-1,9.939328194E0
2.544098140E0,-1.900305003E-1,6.869099736E-1,9.901000023E0
2.549151734E0,-1.373295039E-1,7.012829781E-1,9.728524208E0
2.554205328E0,-7.983750105E-2,6.940965056E-1,9.673427582E0
2.559258974E0,-2.713650092E-2,7.491930127E-1,9.644681931E0
2.564312567E0,-4.630050063E-2,7.587749958E-1,9.580002785E0
2.569366161E0,-7.744199783E-2,7.971029878E-1,9.551257133E0
2.574379494E0,-1.301430017E-1,7.923120260E-1,9.520115852E0
2.579433088E0,-1.756574959E-1,7.659615278E-1,9.536884308E0
2.584486682E0,-2.163809985E-1,7.372155190E-1,9.503347397E0
2.589540328E0,-2.187764943E-1,7.084695101E-1,9.472205162E0
2.594593922E0,-1.996124983E-1,6.749324799E-1,9.551257133E0
2.599647515E0,-1.517024934E-1,6.413955092E-1,9.577607155E0
2.604685119E0,-1.469115019E-1,6.294180155E-1,9.599166870E0
2.609738713E0,-1.660754979E-1,6.413955092E-1,9.680614471E0
2.614792307E0,-1.900305003E-1,5.886945128E-1,9.716546059E0
2.619845953E0,-1.780530065E-1,5.934854746E-1,9.793202400E0
2.624899547E0,-1.900305003E-1,6.581640244E-1,9.836321831E0
2.629953140E0,-1.780530065E-1,6.437910199E-1,9.862671852E0
2.635008036E0,-1.493069977E-1,6.701415181E-1,9.968073845E0
2.640061630E0,-1.229564995E-1,6.845145226E-1,9.982446671E0
2.645115224E0,-6.067350134E-2,7.108650208E-1,9.970469475E0
2.650168869E0,-2.474099956E-2,7.300289869E-1,9.994424820E0
2.655222463E0,-1.276350021E-2,7.539839745E-1,9.936932564E0
2.660276057E0,1.358699985E-2,7.132604718E-1,9.865067482E0
2.665292724E0,-1.515899971E-2,7.444019914E-1,9.809970856E0
2.670346317E0,-6.306900084E-2,7.180514932E-1,9.697382927E0
2.675399911E0,-9.660600126E-2,6.773279905E-1,9.618330956E0
2.680453557E0,-1.564934999E-1,6.389999986E-1,9.517720222E0
2.685507151E0,-1.948215067E-1,6.222314835E-1,9.455436707E0
2.690560744E0,-2.163809985E-1,5.815079808E-1,9.426691055E0
2.695595380E0,-2.163809985E-1,6.006720066E-1,9.417108536E0
2.700648974E0,-2.331494987E-1,6.150450110E-1,9.462623596E0
2.705702567E0,-2.594999969E-1,6.725370288E-1,9.577607155E0
2.710756213E0,-2.355449945E-1,7.204470038E-1,9.706964493E0
2.715809807E0,-2.020079941E-1,7.444019914E-1,9.752478600E0
2.720863401E0,-1.972170025E-1,7.420064807E-1,9.850694656E0
2.725903349E0,-1.660754979E-1,7.635660172E-1,9.920164108E0
2.730956942E0,-9.900149703E-2,7.563794851E-1,9.924955368E0
2.736010536E0,-6.546449661E-2,6.917009950E-1,9.915372849E0
2.741064182E0,-1.445160061E-1,6.797235012E-1,9.908186913E0
2.746117776E0,-1.517024934E-1,6.461864710E-1,9.819553375E0
2.751171369E0,-1.612845063E-1,6.509774923E-1,9.745292664E0
2.756205849E0,-1.493069977E-1,6.653504968E-1,9.663845062E0
2.761259442E0,-1.397249997E-1,6.821190119E-1,9.601562500E0
2.766313036E0,-1.181655005E-1,6.821190119E-1,9.577607155E0
2.771366682E0,-1.061879992E-1,7.467975020E-1,9.594375610E0
2.776420276E0,-1.133745015E-1,7.707524896E-1,9.601562500E0
2.781473869E0,-1.013970003E-1,8.042895198E-1,9.654263496E0
2.786526317E0,-6.785999984E-2,7.947074771E-1,9.738105774E0
2.791579911E0,-2.713650092E-2,8.162670135E-1,9.833926201E0
2.796633505E0,-4.150950164E-2,7.563794851E-1,9.831530571E0
2.801687151E0,-6.067350134E-2,6.797235012E-1,9.812366486E0
2.806740744E0,-7.265099883E-2,6.533730030E-1,9.841112137E0
2.811794338E0,-1.181655005E-1,6.413955092E-1,9.833926201E0
2.816859130E0,-1.469115019E-1,6.198359728E-1,9.857880592E0
2.821912724E0,-1.780530065E-1,6.749324799E-1,9.855485916E0
2.826966317E0,-2.235675007E-1,6.389999986E-1,9.867463112E0
2.832019963E0,-2.044035047E-1,6.485819817E-1,9.855485916E0
2.837073557E0,-1.564934999E-1,6.869099736E-1,9.790806770E0
2.842127151E0,-1.564934999E-1,6.964920163E-1,9.838717461E0
2.847152724E0,-1.540980041E-1,7.420064807E-1,9.848299026E0
2.852204130E0,-1.397249997E-1,7.539839745E-1,9.819553375E0
2.857255484E0,-1.421204954E-1,7.827299833E-1,9.850694656E0
2.862306838E0,-1.157699972E-1,7.611705065E-1,9.898604393E0
2.867358244E0,-1.037925035E-1,8.018940091E-1,9.915372849E0
2.872409599E0,-6.546449661E-2,8.234534860E-1,9.934536934E0
2.877470797E0,-2.713650092E-2,8.402220011E-1,9.924955368E0
2.882522151E0,-1.276350021E-2,8.498039842E-1,9.872254372E0
2.887573557E0,-1.036799978E-2,8.450130224E-1,9.841112137E0
2.892624911E0,1.119150035E-2,8.186625242E-1,9.788411140E0
2.897676265E0,-2.234550007E-2,8.090804815E-1,9.726128578E0
2.902727672E0,-7.744199783E-2,7.994984984E-1,9.694987297E0
2.907775276E0,-1.181655005E-1,7.994984984E-1,9.637495041E0
2.912826630E0,-1.061879992E-1,7.779390216E-1,9.654263496E0
2.917878036E0,-1.205610037E-1,7.755435109E-1,9.690196037E0
2.922929390E0,-9.421049803E-2,7.779390216E-1,9.788411140E0
2.927980744E0,-8.223299682E-2,7.587749958E-1,9.886627197E0
2.933032151E0,-4.630050063E-2,7.923120260E-1,9.932141304E0
2.938074963E0,-5.348699912E-2,7.420064807E-1,9.977656364E0
2.943126317E0,-3.192749992E-2,6.845145226E-1,9.996820450E0
2.948177724E0,-3.671849892E-2,6.821190119E-1,9.970469475E0
2.953229078E0,-1.036799978E-2,6.725370288E-1,9.946514130E0
2.958280432E0,-7.859999896E-4,6.629549861E-1,9.948909760E0
2.963331838E0,-2.713650092E-2,7.348200083E-1,9.910581589E0
2.968375901E0,-2.953200042E-2,7.444019914E-1,9.843507767E0
2.973427307E0,-8.223299682E-2,7.707524896E-1,9.833926201E0
2.978478661E0,-7.265099883E-2,7.779390216E-1,9.809970856E0
2.983530015E0,-5.109149963E-2,8.090804815E-1,9.735710144E0
2.988581422E0,-5.109149963E-2,7.899165154E-1,9.709360123E0
2.993632776E0,-5.109149963E-2,7.827299833E-1,9.716546059E0
2.998677619E0,-7.504650205E-2,7.204470038E-1,9.735710144E0
3.003729026E0,-7.744199783E-2,7.060739994E-1,9.797993660E0
3.008780380E0,-9.900149703E-2,6.701415181E-1,9.853090286E0
3.013831734E0,-1.301430017E-1,6.509774923E-1,9.951305389E0
3.018883140E0,-1.972170025E-1,6.126495004E-1,1.004473019E1
3.023934494E0,-2.403360009E-1,5.958809853E-1,1.012138557E1
3.028961994E0,-2.738730013E-1,5.791125298E-1,1.015971375E1
3.034013349E0,-2.379405051E-1,5.815079808E-1,1.019325066E1
3.039064755E0,-2.283585072E-1,5.647395253E-1,1.019564629E1
3.044116109E0,-2.259629965E-1,5.431799889E-1,1.017408657E1
3.049167463E0,-2.666864991E-1,5.431799889E-1,1.009982681E1
3.054218817E0,-2.571044862E-1,5.335980058E-1,9.958492279E0
3.059291994E0,-2.259629965E-1,5.168294907E-1,9.805179596E0
3.064343349E0,-2.187764943E-1,5.407844782E-1,9.668636322E0
3.069394755E0,-2.067990005E-1,5.791125298E-1,9.548861504E0
3.074446109E0,-1.876350045E-1,6.198359728E-1,9.505742073E0
3.079497463E0,-1.636800021E-1,7.060739994E-1,9.493764877E0
3.084548869E0,-1.253519952E-1,7.803344727E-1,9.503347397E0
3.089602463E0,-1.133745015E-1,8.593860269E-1,9.556048393E0
3.094653817E0,-7.983750105E-2,8.905274868E-1,9.613539696E0
3.099705224E0,-7.504650205E-2,9.144824743E-1,9.620726585E0
3.104756578E0,-9.421049803E-2,8.761544824E-1,9.661450386E0
3.109807932E0,-1.301430017E-1,8.066849709E-1,9.716546059E0
3.114859338E0,-1.636800021E-1,6.917009950E-1,9.740501404E0
3.119913088E0,-1.540980041E-1,6.246269941E-1,9.718941689E0
3.124964442E0,-1.756574959E-1,5.958809853E-1,9.769247055E0
3.130015849E0,-2.235675007E-1,5.647395253E-1,9.814762115E0
3.135067203E0,-2.331494987E-1,5.862990022E-1,9.809970856E0
3.140118557E0,-2.499179989E-1,5.479710102E-1,9.833926201E0
3.145169963E0,-2.834550142E-1,5.599485040E-1,9.877044678E0
3.150250849E0,-3.074100018E-1,5.575529933E-1,9.857880592E0
3.155302255E0,-3.193874955E-1,5.791125298E-1,9.853090286E0
3.160353557E0,-2.738730013E-1,5.551574826E-1,9.824343681E0
3.165404963E0,-2.786639929E-1,5.431799889E-1,9.788411140E0
3.170456317E0,-2.355449945E-1,5.264114738E-1,9.757269859E0
3.175507672E0,-2.091944963E-1,5.695304871E-1,9.659054756E0
3.180513869E0,-2.163809985E-1,6.078584790E-1,9.635099411E0
3.185565276E0,-2.283585072E-1,6.246269941E-1,9.635099411E0
3.190616682E0,-2.547090054E-1,6.461864710E-1,9.635099411E0
3.195667984E0,-2.762685120E-1,6.389999986E-1,9.594375610E0
3.200719390E0,-2.762685120E-1,6.246269941E-1,9.623122215E0
3.205770744E0,-2.834550142E-1,6.102539897E-1,9.649472237E0
3.210864390E0,-3.098055124E-1,5.886945128E-1,9.671031952E0
3.215915744E0,-3.098055124E-1,5.359935164E-1,9.754874229E0
3.220967099E0,-3.098055124E-1,5.216205120E-1,9.814762115E0
3.226018453E0,-2.978279889E-1,5.335980058E-1,9.850694656E0
3.231069859E0,-2.451270074E-1,5.240160227E-1,9.877044678E0
3.236121213E0,-1.780530065E-1,5.815079808E-1,9.968073845E0
3.241129755E0,-1.708665043E-1,6.294180155E-1,1.004233456E1
3.246181109E0,-2.427314967E-1,6.366044879E-1,1.002077484E1
3.251232515E0,-2.930369973E-1,6.509774923E-1,9.989633560E0
3.256283869E0,-3.289695084E-1,6.701415181E-1,9.984842300E0
3.261335224E0,-3.074100018E-1,6.318135262E-1,9.941723824E0
3.266386630E0,-2.906414866E-1,5.575529933E-1,9.889022827E0
3.271439026E0,-3.002234995E-1,5.455754995E-1,9.865067482E0
3.276490432E0,-3.122009933E-1,5.455754995E-1,9.855485916E0
3.281541786E0,-3.122009933E-1,5.527619720E-1,9.819553375E0
3.286593140E0,-3.145965040E-1,5.815079808E-1,9.819553375E0
3.291644494E0,-2.810595036E-1,5.934854746E-1,9.778829575E0
3.296695901E0,-2.666864991E-1,6.557685137E-1,9.750083923E0
3.301751057E0,-2.307540029E-1,6.917009950E-1,9.742897034E0
3.306802411E0,-1.804485023E-1,7.587749958E-1,9.752478600E0
3.311853817E0,-1.205610037E-1,7.923120260E-1,9.735710144E0
3.316905172E0,-1.253519952E-1,7.971029878E-1,9.754874229E0
3.321956526E0,-1.061879992E-1,7.947074771E-1,9.718941689E0
3.327007984E0,-1.109789982E-1,8.186625242E-1,9.704568863E0
3.332057047E0,-1.732620001E-1,7.563794851E-1,9.687800407E0
3.337108401E0,-2.666864991E-1,7.084695101E-1,9.649472237E0
3.342159807E0,-3.241784871E-1,6.581640244E-1,9.649472237E0
3.347211213E0,-3.385514915E-1,6.150450110E-1,9.654263496E0
3.352262515E0,-3.457379937E-1,5.934854746E-1,9.671031952E0
3.357313922E0,-3.577154875E-1,5.791125298E-1,9.678218842E0
3.362355901E0,-3.529244959E-1,5.575529933E-1,9.740501404E0
3.367407307E0,-3.505289853E-1,5.862990022E-1,9.802784920E0
3.372458661E0,-3.505289853E-1,6.270225048E-1,9.862671852E0
3.377510015E0,-3.002234995E-1,6.246269941E-1,9.972865105E0
3.382561422E0,-3.074100018E-1,6.605594754E-1,1.000640202E1
3.387612776E0,-3.026190102E-1,6.246269941E-1,1.002556610E1
3.392648713E0,-3.098055124E-1,6.366044879E-1,1.004233456E1
3.397700119E0,-2.738730013E-1,6.270225048E-1,1.000161076E1
3.402751474E0,-3.002234995E-1,6.366044879E-1,9.965678215E0
3.407802828E0,-2.930369973E-1,6.629549861E-1,9.903395653E0
3.412854182E0,-3.074100018E-1,6.605594754E-1,9.845903397E0
3.417905536E0,-3.265739977E-1,6.821190119E-1,9.826739311E0
3.422960953E0,-2.810595036E-1,6.917009950E-1,9.807575226E0
3.428012307E0,-2.499179989E-1,7.611705065E-1,9.797993660E0
3.433063713E0,-2.163809985E-1,7.731480002E-1,9.754874229E0
3.438115067E0,-2.211720049E-1,8.090804815E-1,9.754874229E0
3.443166422E0,-2.738730013E-1,7.779390216E-1,9.733315468E0
3.448217828E0,-2.954325080E-1,7.515885234E-1,9.730919838E0
3.453280901E0,-2.762685120E-1,7.539839745E-1,9.709360123E0
3.458332255E0,-2.906414866E-1,7.659615278E-1,9.680614471E0
3.463383661E0,-2.882460058E-1,7.683569789E-1,9.694987297E0
3.468435015E0,-3.313649893E-1,7.084695101E-1,9.663845062E0
3.473486369E0,-4.032300115E-1,6.988875270E-1,9.704568863E0
3.478537776E0,-3.960435092E-1,6.749324799E-1,9.704568863E0
3.483585067E0,-3.696930110E-1,6.437910199E-1,9.702173233E0
3.488636422E0,-3.337605000E-1,6.533730030E-1,9.704568863E0
3.493687828E0,-3.601109982E-1,6.342089772E-1,9.738105774E0
3.498739182E0,-3.720884919E-1,6.653504968E-1,9.766852379E0
3.503790536E0,-3.649019897E-1,6.940965056E-1,9.786016464E0
3.508841994E0,-4.176029861E-1,6.773279905E-1,9.838717461E0
3.513902047E0,-4.343715012E-1,6.773279905E-1,9.843507767E0
3.518953401E0,-4.176029861E-1,7.036784887E-1,9.850694656E0
3.524004755E0,-3.696930110E-1,7.348200083E-1,9.838717461E0
3.529056161E0,-3.361560106E-1,7.228425145E-1,9.872254372E0
3.534107515E0,-2.882460058E-1,7.420064807E-1,9.865067482E0
3.539158869E0,-2.666864991E-1,7.012829781E-1,9.889022827E0
3.544185484E0,-2.714774907E-1,6.940965056E-1,9.910581589E0
3.549236890E0,-2.954325080E-1,7.132604718E-1,9.908186913E0
3.554288192E0,-3.529244959E-1,6.749324799E-1,9.922559738E0
3.559339599E0,-3.672975004E-1,6.677460074E-1,9.939328194E0
3.564390953E0,-3.792749941E-1,6.389999986E-1,9.984842300E0
3.569442359E0,-3.840659857E-1,6.389999986E-1,9.972865105E0
3.574487828E0,-3.696930110E-1,5.910900235E-1,9.941723824E0
3.579539234E0,-4.080210030E-1,5.743215084E-1,9.924955368E0
3.584590588E0,-4.319759905E-1,5.671349764E-1,9.946514130E0
3.589641942E0,-4.726994932E-1,5.671349764E-1,9.932141304E0
3.594693349E0,-4.726994932E-1,5.599485040E-1,9.896208763E0
3.599744703E0,-5.134230256E-1,5.264114738E-1,9.860276222E0
3.604771474E0,-4.655129910E-1,5.527619720E-1,9.781225204E0
3.609822828E0,-4.104165137E-1,5.599485040E-1,9.711755753E0
3.614874182E0,-3.625065088E-1,6.366044879E-1,9.671031952E0
3.619925588E0,-3.409470022E-1,6.773279905E-1,9.683009148E0
3.624976942E0,-3.289695084E-1,7.228425145E-1,9.651867867E0
3.630028297E0,-2.954325080E-1,7.515885234E-1,9.714151382E0
3.635090276E0,-3.002234995E-1,7.683569789E-1,9.776433945E0
3.640141630E0,-2.882460058E-1,7.851254940E-1,9.781225204E0
3.645192984E0,-2.930369973E-1,8.114759922E-1,9.843507767E0
3.650244390E0,-2.762685120E-1,8.162670135E-1,9.853090286E0
3.655295744E0,-2.475225031E-1,8.114759922E-1,9.833926201E0
3.660347099E0,-2.547090054E-1,8.066849709E-1,9.831530571E0
3.665394807E0,-2.930369973E-1,7.587749958E-1,9.829134941E0
3.670446161E0,-3.098055124E-1,7.252380252E-1,9.857880592E0
3.675497515E0,-3.145965040E-1,6.653504968E-1,9.800389290E0
3.680548922E0,-3.026190102E-1,7.012829781E-1,9.790806770E0
3.685600276E0,-3.409470022E-1,6.797235012E-1,9.797993660E0
3.690651630E0,-3.289695084E-1,6.485819817E-1,9.687800407E0
3.695695224E0,-2.930369973E-1,6.581640244E-1,9.697382927E0
3.700746578E0,-3.098055124E-1,6.988875270E-1,9.673427582E0
3.705797984E0,-2.762685120E-1,7.252380252E-1,9.706964493E0
3.710849338E0,-2.642909884E-1,7.348200083E-1,9.735710144E0
3.715900692E0,-3.074100018E-1,7.827299833E-1,9.728524208E0
3.720952099E0,-3.193874955E-1,8.066849709E-1,9.733315468E0
3.725995172E0,-3.193874955E-1,8.426175117E-1,9.771642685E0
3.731046526E0,-3.145965040E-1,8.354309797E-1,9.795598030E0
3.736097932E0,-3.074100018E-1,7.923120260E-1,9.766852379E0
3.741149338E0,-2.523134947E-1,8.042895198E-1,9.802784920E0
3.746200692E0,-2.307540029E-1,7.923120260E-1,9.771642685E0
3.751252047E0,-2.283585072E-1,8.090804815E-1,9.752478600E0
3.756295797E0,-2.403360009E-1,7.994984984E-1,9.723732948E0
3.761347151E0,-2.355449945E-1,7.755435109E-1,9.723732948E0
3.766398557E0,-2.642909884E-1,8.090804815E-1,9.680614471E0
3.771449911E0,-2.618955076E-1,8.042895198E-1,9.702173233E0
3.776501265E0,-2.954325080E-1,7.994984984E-1,9.675823212E0
3.781552672E0,-2.690820098E-1,8.258489966E-1,9.654263496E0
3.786606890E0,-2.618955076E-1,8.258489966E-1,9.704568863E0
3.791658244E0,-2.427314967E-1,7.994984984E-1,9.733315468E0
3.796709599E0,-2.451270074E-1,7.971029878E-1,9.675823212E0
3.801761005E0,-2.571044862E-1,7.683569789E-1,9.654263496E0
3.806812359E0,-2.642909884E-1,7.420064807E-1,9.651867867E0
3.811863713E0,-3.265739977E-1,7.204470038E-1,9.685404778E0
3.816926682E0,-3.433425128E-1,6.797235012E-1,9.723732948E0
3.821978036E0,-3.840659857E-1,6.773279905E-1,9.733315468E0
3.827029390E0,-4.343715012E-1,6.797235012E-1,9.800389290E0
3.832080797E0,-4.199984968E-1,6.940965056E-1,9.874649048E0
3.837132151E0,-3.696930110E-1,6.821190119E-1,9.910581589E0
3.842183505E0,-3.289695084E-1,6.605594754E-1,9.939328194E0
3.847239651E0,-3.050144911E-1,6.917009950E-1,9.941723824E0
3.852290744E0,-3.122009933E-1,7.036784887E-1,9.987237930E0
3.857341734E0,-2.858504951E-1,6.964920163E-1,9.972865105E0
3.862392724E0,-2.906414866E-1,7.372155190E-1,9.958492279E0
3.867443817E0,-2.834550142E-1,7.467975020E-1,9.944119453E0
3.872494807E0,-2.978279889E-1,7.420064807E-1,9.939328194E0
3.877528297E0,-2.978279889E-1,7.324244976E-1,9.915372849E0
3.882579338E0,-3.098055124E-1,7.635660172E-1,9.877044678E0
3.887630380E0,-3.505289853E-1,7.539839745E-1,9.826739311E0
3.892681422E0,-3.409470022E-1,7.444019914E-1,9.783620834E0
3.897732463E0,-2.858504951E-1,7.372155190E-1,9.723732948E0
3.902783453E0,-2.642909884E-1,7.659615278E-1,9.683009148E0
3.907860484E0,-3.050144911E-1,7.755435109E-1,9.675823212E0
3.912911526E0,-3.169920146E-1,7.803344727E-1,9.663845062E0
3.917962515E0,-3.265739977E-1,7.875210047E-1,9.692591667E0
3.923013557E0,-3.385514915E-1,7.899165154E-1,9.680614471E0
3.928064599E0,-3.601109982E-1,7.491930127E-1,9.685404778E0
3.933115640E0,-3.625065088E-1,7.444019914E-1,9.723732948E0
3.938168036E0,-3.936479986E-1,7.084695101E-1,9.766852379E0
3.943219078E0,-4.032300115E-1,6.988875270E-1,9.833926201E0
3.948270067E0,-4.223940074E-1,7.300289869E-1,9.922559738E0
3.953321109E0,-3.840659857E-1,7.228425145E-1,9.975260735E0
3.958372151E0,-3.457379937E-1,7.156559825E-1,1.000640202E1
3.963423192E0,-2.834550142E-1,7.132604718E-1,1.000400639E1
3.968452203E0,-2.475225031E-1,7.036784887E-1,9.963282585E0
3.973503244E0,-2.163809985E-1,6.893054843E-1,9.951305389E0
3.978554234E0,-2.187764943E-1,6.749324799E-1,9.884231567E0
3.983605276E0,-2.666864991E-1,6.893054843E-1,9.805179596E0
3.988656317E0,-3.026190102E-1,6.701415181E-1,9.752478600E0
3.993707359E0,-3.337605000E-1,6.581640244E-1,9.651867867E0
3.998764651E0,-4.080210030E-1,6.797235012E-1,9.582398415E0
4.003815692E0,-4.176029861E-1,6.917009950E-1,9.553652763E0
4.008866682E0,-3.888570070E-1,7.108650208E-1,9.500951767E0
4.013917724E0,-3.505289853E-1,7.036784887E-1,9.563234329E0
4.018968765E0,-3.385514915E-1,7.036784887E-1,9.541674614E0
4.024019755E0,-3.050144911E-1,7.132604718E-1,9.577607155E0
4.029087307E0,-2.930369973E-1,7.180514932E-1,9.639890671E0
4.034138349E0,-3.217830062E-1,7.180514932E-1,9.690196037E0
4.039189390E0,-3.457379937E-1,7.084695101E-1,9.738105774E0
4.044240432E0,-3.720884919E-1,6.988875270E-1,9.771642685E0
4.049291474E0,-3.505289853E-1,6.845145226E-1,9.790806770E0
4.054342515E0,-3.457379937E-1,6.366044879E-1,9.790806770E0
4.059383817E0,-3.409470022E-1,6.557685137E-1,9.781225204E0
4.064434859E0,-3.145965040E-1,6.557685137E-1,9.769247055E0
4.069485849E0,-3.074100018E-1,6.413955092E-1,9.706964493E0
4.074536942E0,-2.954325080E-1,6.725370288E-1,9.685404778E0
4.079587984E0,-2.930369973E-1,6.845145226E-1,9.661450386E0
4.084638974E0,-2.882460058E-1,7.467975020E-1,9.668636322E0
4.089690536E0,-2.547090054E-1,7.803344727E-1,9.735710144E0
4.094741578E0,-2.834550142E-1,7.851254940E-1,9.730919838E0
4.099792567E0,-2.786639929E-1,7.755435109E-1,9.754874229E0
4.104843609E0,-2.714774907E-1,7.635660172E-1,9.812366486E0
4.109894651E0,-2.523134947E-1,7.228425145E-1,9.874649048E0
4.114945692E0,-2.211720049E-1,7.324244976E-1,9.980051041E0
4.119975380E0,-1.996124983E-1,7.252380252E-1,1.001358891E1
4.125026369E0,-1.972170025E-1,7.084695101E-1,1.003275204E1
4.130077411E0,-1.852394938E-1,6.988875270E-1,1.001358891E1
4.135128401E0,-2.139855027E-1,6.533730030E-1,1.004233456E1
4.140179442E0,-3.002234995E-1,6.749324799E-1,1.001837921E1
4.145230484E0,-3.289695084E-1,6.940965056E-1,1.000879765E1
4.150319963E0,-3.169920146E-1,6.461864710E-1,9.968073845E0
4.155371005E0,-3.505289853E-1,6.150450110E-1,9.886627197E0
4.160422047E0,-3.672975004E-1,6.222314835E-1,9.860276222E0
4.165473088E0,-3.193874955E-1,6.389999986E-1,9.809970856E0
4.170524130E0,-3.122009933E-1,6.437910199E-1,9.805179596E0
4.175575119E0,-2.834550142E-1,6.366044879E-1,9.826739311E0
4.180614547E0,-2.738730013E-1,6.797235012E-1,9.833926201E0
4.185665588E0,-2.642909884E-1,7.060739994E-1,9.800389290E0
4.190716630E0,-2.259629965E-1,7.204470038E-1,9.774038315E0
4.195767672E0,-2.235675007E-1,6.988875270E-1,9.769247055E0
4.200818713E0,-2.618955076E-1,7.420064807E-1,9.793202400E0
4.205869703E0,-2.427314967E-1,7.467975020E-1,9.807575226E0
4.210921213E0,-2.163809985E-1,7.372155190E-1,9.774038315E0
4.215972255E0,-2.163809985E-1,7.444019914E-1,9.800389290E0
4.221023297E0,-1.900305003E-1,7.635660172E-1,9.762061119E0
4.226074286E0,-1.900305003E-1,7.923120260E-1,9.759665489E0
4.231125380E0,-1.852394938E-1,7.994984984E-1,9.754874229E0
4.236176422E0,-1.828439981E-1,7.899165154E-1,9.747688293E0
4.241231630E0,-1.900305003E-1,8.282445073E-1,9.752478600E0
4.246282672E0,-2.235675007E-1,8.090804815E-1,9.733315468E0
4.251333661E0,-2.331494987E-1,8.066849709E-1,9.711755753E0
4.256384703E0,-2.451270074E-1,8.450130224E-1,9.678218842E0
4.261435744E0,-2.235675007E-1,8.402220011E-1,9.683009148E0
4.266486786E0,-2.091944963E-1,8.258489966E-1,9.709360123E0
4.271514859E0,-2.044035047E-1,8.210579753E-1,9.663845062E0
4.276565901E0,-2.379405051E-1,7.923120260E-1,9.649472237E0
4.281616890E0,-2.235675007E-1,7.779390216E-1,9.635099411E0
4.286667880E0,-2.331494987E-1,7.396110296E-1,9.615935326E0
4.291718974E0,-2.762685120E-1,7.084695101E-1,9.644681931E0
4.296769963E0,-2.882460058E-1,6.749324799E-1,9.666240692E0
4.301831786E0,-3.241784871E-1,6.797235012E-1,9.711755753E0
4.306882828E0,-3.313649893E-1,6.917009950E-1,9.750083923E0
4.311933817E0,-3.577154875E-1,6.893054843E-1,9.860276222E0
4.316984859E0,-3.409470022E-1,6.988875270E-1,9.884231567E0
4.322035901E0,-3.098055124E-1,6.964920163E-1,9.924955368E0
4.327086942E0,-3.050144911E-1,6.629549861E-1,9.896208763E0
4.332145380E0,-3.098055124E-1,6.318135262E-1,9.855485916E0
4.337196422E0,-3.193874955E-1,6.270225048E-1,9.843507767E0
4.342247463E0,-3.720884919E-1,6.318135262E-1,9.865067482E0
4.347298505E0,-3.960435092E-1,6.461864710E-1,9.829134941E0
4.352349547E0,-4.080210030E-1,6.294180155E-1,9.853090286E0
4.357400536E0,-3.649019897E-1,6.174405217E-1,9.860276222E0
4.362444651E0,-3.505289853E-1,6.581640244E-1,9.881835938E0
4.367495692E0,-3.122009933E-1,6.917009950E-1,9.898604393E0
4.372546734E0,-3.169920146E-1,6.605594754E-1,9.836321831E0
4.377597776E0,-2.978279889E-1,6.581640244E-1,9.797993660E0
4.382648817E0,-3.122009933E-1,6.773279905E-1,9.774038315E0
4.387699807E0,-3.145965040E-1,6.677460074E-1,9.716546059E0
4.392755484E0,-2.882460058E-1,6.821190119E-1,9.740501404E0
4.397806526E0,-2.690820098E-1,7.156559825E-1,9.771642685E0
4.402857567E0,-2.379405051E-1,7.851254940E-1,9.769247055E0
4.407908609E0,-1.948215067E-1,8.210579753E-1,9.817157745E0
4.412959651E0,-1.972170025E-1,8.450130224E-1,9.853090286E0
4.418010640E0,-2.403360009E-1,8.905274868E-1,9.850694656E0
4.423058140E0,-2.331494987E-1,8.521994948E-1,9.867463112E0
4.428109182E0,-2.379405051E-1,8.306400180E-1,9.836321831E0
4.433160172E0,-2.690820098E-1,7.971029878E-1,9.838717461E0
4.438211213E0,-2.714774907E-1,7.947074771E-1,9.824343681E0
4.443262255E0,-3.361560106E-1,7.491930127E-1,9.793202400E0
4.448313297E0,-3.744840026E-1,7.060739994E-1,9.757269859E0
4.453361786E0,-3.744840026E-1,6.629549861E-1,9.776433945E0
4.458412828E0,-3.553200066E-1,6.246269941E-1,9.764456749E0
4.463463817E0,-3.984389901E-1,6.318135262E-1,9.747688293E0
4.468514911E0,-3.936479986E-1,6.461864710E-1,9.766852379E0
4.473565953E0,-3.936479986E-1,6.342089772E-1,9.762061119E0
4.478616942E0,-3.696930110E-1,6.653504968E-1,9.757269859E0
4.483687619E0,-3.601109982E-1,6.821190119E-1,9.776433945E0
4.488738661E0,-3.241784871E-1,6.797235012E-1,9.754874229E0
4.493789651E0,-3.433425128E-1,6.581640244E-1,9.730919838E0
4.498840692E0,-3.457379937E-1,6.749324799E-1,9.735710144E0
4.503891734E0,-2.930369973E-1,6.749324799E-1,9.781225204E0
4.508942776E0,-2.666864991E-1,7.108650208E-1,9.836321831E0
4.513980640E0,-2.954325080E-1,7.444019914E-1,9.936932564E0
4.519031682E0,-2.762685120E-1,7.563794851E-1,9.936932564E0
4.524082724E0,-2.594999969E-1,7.420064807E-1,9.927350044E0
4.529133765E0,-2.618955076E-1,7.252380252E-1,9.948909760E0
4.534184807E0,-2.547090054E-1,7.252380252E-1,9.994424820E0
4.539235797E0,-3.313649893E-1,6.964920163E-1,9.953701019E0
4.544283453E0,-3.768795133E-1,6.677460074E-1,9.965678215E0
4.549334547E0,-4.056254923E-1,6.581640244E-1,9.903395653E0
4.554385536E0,-4.247894883E-1,6.485819817E-1,9.838717461E0
4.559436578E0,-4.511399865E-1,6.198359728E-1,9.829134941E0
4.564487567E0,-4.271849990E-1,5.743215084E-1,9.786016464E0
4.569538661E0,-3.672975004E-1,5.839034915E-1,9.742897034E0
4.574593505E0,-3.696930110E-1,5.934854746E-1,9.733315468E0
4.579644547E0,-3.433425128E-1,6.461864710E-1,9.711755753E0
4.584695588E0,-2.954325080E-1,6.917009950E-1,9.730919838E0
4.589746630E0,-3.026190102E-1,7.324244976E-1,9.694987297E0
4.594797672E0,-2.738730013E-1,7.755435109E-1,9.673427582E0
4.599848713E0,-2.762685120E-1,8.042895198E-1,9.675823212E0
4.604867932E0,-2.834550142E-1,7.779390216E-1,9.630308151E0
4.609918974E0,-2.738730013E-1,7.899165154E-1,9.603958130E0
4.614969963E0,-2.954325080E-1,7.539839745E-1,9.661450386E0
4.620021005E0,-3.241784871E-1,7.372155190E-1,9.709360123E0
4.625072047E0,-3.816705048E-1,7.515885234E-1,9.762061119E0
4.630123088E0,-3.577154875E-1,7.324244976E-1,9.824343681E0
4.635178713E0,-3.289695084E-1,7.036784887E-1,9.848299026E0
4.640229703E0,-3.217830062E-1,6.749324799E-1,9.884231567E0
4.645280744E0,-2.858504951E-1,6.605594754E-1,9.934536934E0
4.650331786E0,-2.954325080E-1,6.509774923E-1,9.920164108E0
4.655382828E0,-2.810595036E-1,6.485819817E-1,9.917768478E0
4.660417984E0,-3.002234995E-1,6.509774923E-1,9.908186913E0
4.665469026E0,-3.145965040E-1,6.270225048E-1,9.893813133E0
4.670512828E0,-3.217830062E-1,6.413955092E-1,9.884231567E0
4.675563765E0,-3.313649893E-1,6.581640244E-1,9.809970856E0
4.680610380E0,-3.672975004E-1,6.821190119E-1,9.766852379E0
4.685661422E0,-3.625065088E-1,7.012829781E-1,9.778829575E0
4.690727151E0,-3.313649893E-1,7.084695101E-1,9.742897034E0
4.695764963E0,-3.481335044E-1,7.108650208E-1,9.726128578E0
4.700816005E0,-3.241784871E-1,6.988875270E-1,9.726128578E0
4.705881317E0,-3.265739977E-1,7.324244976E-1,9.718941689E0
4.710932255E0,-3.457379937E-1,7.156559825E-1,9.730919838E0
4.715983297E0,-3.265739977E-1,7.036784887E-1,9.774038315E0
4.721034338E0,-3.193874955E-1,7.036784887E-1,9.788411140E0
4.726085380E0,-2.882460058E-1,7.228425145E-1,9.833926201E0
4.731136422E0,-3.002234995E-1,7.611705065E-1,9.860276222E0
4.736187411E0,-2.810595036E-1,7.467975020E-1,9.824343681E0
4.741239390E0,-3.193874955E-1,7.132604718E-1,9.838717461E0
4.746290380E0,-3.361560106E-1,6.797235012E-1,9.769247055E0
4.751341422E0,-3.672975004E-1,6.509774923E-1,9.706964493E0
4.756392463E0,-3.840659857E-1,6.366044879E-1,9.668636322E0
4.761443505E0,-4.080210030E-1,6.078584790E-1,9.683009148E0
4.766494494E0,-4.008345008E-1,6.294180155E-1,9.663845062E0
4.771544026E0,-3.960435092E-1,6.581640244E-1,9.656659126E0
4.776595067E0,-3.145965040E-1,6.557685137E-1,9.651867867E0
4.781646109E0,-2.930369973E-1,7.204470038E-1,9.642286301E0
4.786697099E0,-2.786639929E-1,7.204470038E-1,9.644681931E0
4.791748140E0,-2.618955076E-1,7.396110296E-1,9.659054756E0
4.796799182E0,-2.427314967E-1,7.444019914E-1,9.644681931E0
4.801878661E0,-2.547090054E-1,7.515885234E-1,9.661450386E0
4.806929651E0,-2.355449945E-1,7.372155190E-1,9.678218842E0
4.811980692E0,-1.972170025E-1,7.467975020E-1,9.680614471E0
4.817031734E0,-2.044035047E-1,7.348200083E-1,9.680614471E0
4.822082776E0,-2.331494987E-1,6.845145226E-1,9.714151382E0
4.827133817E0,-2.882460058E-1,6.773279905E-1,9.735710144E0
4.832177359E0,-3.122009933E-1,6.389999986E-1,9.723732948E0
4.837228349E0,-3.577154875E-1,6.078584790E-1,9.721337318E0
4.842279390E0,-3.672975004E-1,6.126495004E-1,9.738105774E0
4.847330432E0,-4.128119946E-1,5.503665209E-1,9.745292664E0
4.852381474E0,-4.343715012E-1,5.479710102E-1,9.797993660E0
4.857432463E0,-4.798859954E-1,5.575529933E-1,9.795598030E0
4.862487672E0,-4.798859954E-1,5.958809853E-1,9.831530571E0
4.867538713E0,-4.511399865E-1,6.270225048E-1,9.932141304E0
4.872589755E0,-4.367670119E-1,6.342089772E-1,9.975260735E0
4.877640797E0,-3.888570070E-1,6.270225048E-1,9.984842300E0
4.882691786E0,-3.122009933E-1,5.982764959E-1,9.977656364E0
4.887742828E0,-2.547090054E-1,6.222314835E-1,9.980051041E0
4.892781057E0,-2.307540029E-1,6.461864710E-1,1.000400639E1
4.897832047E0,-2.020079941E-1,6.677460074E-1,1.000161076E1
4.902883088E0,-2.451270074E-1,6.893054843E-1,9.992029190E0
4.907934130E0,-2.690820098E-1,6.917009950E-1,9.970469475E0
4.912985172E0,-3.169920146E-1,6.701415181E-1,9.901000023E0
4.918036213E0,-3.217830062E-1,6.797235012E-1,9.853090286E0
4.923080484E0,-2.834550142E-1,7.228425145E-1,9.769247055E0
4.928131526E0,-2.906414866E-1,7.012829781E-1,9.651867867E0
4.933182515E0,-3.193874955E-1,6.988875270E-1,9.558443069E0
4.938233557E0,-3.409470022E-1,7.132604718E-1,9.491369247E0
4.943284599E0,-3.744840026E-1,7.132604718E-1,9.450646400E0
4.948335588E0,-4.247894883E-1,7.276334763E-1,9.436272621E0
4.953444755E0,-4.487445056E-1,7.563794851E-1,9.436272621E0
4.958495849E0,-3.912524879E-1,8.138715029E-1,9.462623596E0
4.963546838E0,-3.289695084E-1,8.018940091E-1,9.546465874E0
4.968597880E0,-3.145965040E-1,8.569905162E-1,9.608749390E0
4.973648922E0,-2.594999969E-1,8.426175117E-1,9.726128578E0
4.978699963E0,-2.906414866E-1,7.899165154E-1,9.812366486E0
4.983684703E0,-3.026190102E-1,7.611705065E-1,9.867463112E0
4.988735744E0,-2.762685120E-1,7.108650208E-1,9.912977219E0
4.993786786E0,-3.026190102E-1,6.797235012E-1,1.001837921E1
4.998837776E0,-3.457379937E-1,6.581640244E-1,1.010940838E1
5.003888817E0,-3.433425128E-1,6.174405217E-1,1.015252781E1
5.008939859E0,-3.720884919E-1,6.006720066E-1,1.019085503E1
5.014009130E0,-4.152075052E-1,5.431799889E-1,1.015971375E1
5.019060172E0,-4.679085016E-1,5.407844782E-1,1.015252781E1
5.024111213E0,-4.870724976E-1,4.928745031E-1,1.012378120E1
5.029162203E0,-4.631175101E-1,5.144339800E-1,1.002077484E1
5.034213244E0,-4.655129910E-1,5.024564862E-1,9.944119453E0
5.039264286E0,-4.176029861E-1,5.216205120E-1,9.862671852E0
5.044305953E0,-3.361560106E-1,5.934854746E-1,9.788411140E0
5.049356994E0,-2.954325080E-1,6.270225048E-1,9.762061119E0
5.054407984E0,-2.403360009E-1,6.629549861E-1,9.690196037E0
5.059459026E0,-2.259629965E-1,7.180514932E-1,9.716546059E0
5.064523088E0,-2.738730013E-1,7.563794851E-1,9.716546059E0
5.069574130E0,-2.810595036E-1,7.851254940E-1,9.651867867E0
5.074607672E0,-2.618955076E-1,7.635660172E-1,9.651867867E0
5.079658661E0,-2.379405051E-1,7.420064807E-1,9.651867867E0
5.084711630E0,-2.666864991E-1,7.204470038E-1,9.639890671E0
5.089762672E0,-2.762685120E-1,7.132604718E-1,9.630308151E0
5.094820015E0,-2.834550142E-1,6.917009950E-1,9.620726585E0
5.099871005E0,-3.169920146E-1,6.701415181E-1,9.656659126E0
5.104923713E0,-3.289695084E-1,6.605594754E-1,9.661450386E0
5.109974755E0,-3.481335044E-1,6.294180155E-1,9.663845062E0
5.115011369E0,-3.696930110E-1,6.389999986E-1,9.738105774E0
5.120062359E0,-4.032300115E-1,6.318135262E-1,9.817157745E0
5.125113401E0,-4.152075052E-1,6.485819817E-1,9.877044678E0
5.130164390E0,-3.385514915E-1,6.653504968E-1,9.927350044E0
5.135215432E0,-3.241784871E-1,6.964920163E-1,9.944119453E0
5.140266474E0,-2.906414866E-1,7.180514932E-1,9.951305389E0
5.145317515E0,-2.499179989E-1,6.893054843E-1,9.968073845E0
5.150407255E0,-2.283585072E-1,6.869099736E-1,9.905791283E0
5.155458297E0,-2.331494987E-1,7.132604718E-1,9.879440308E0
5.160509338E0,-2.331494987E-1,7.300289869E-1,9.788411140E0
5.165560328E0,-2.283585072E-1,6.988875270E-1,9.754874229E0
5.170611369E0,-2.786639929E-1,6.893054843E-1,9.663845062E0
5.175662411E0,-2.810595036E-1,6.581640244E-1,9.620726585E0
5.180722880E0,-2.714774907E-1,6.797235012E-1,9.568025589E0
5.185773922E0,-2.642909884E-1,6.845145226E-1,9.536884308E0
5.190824963E0,-2.834550142E-1,6.509774923E-1,9.496160507E0
5.195875953E0,-3.193874955E-1,6.917009950E-1,9.500951767E0
5.200926994E0,-3.601109982E-1,6.773279905E-1,9.493764877E0
5.205978036E0,-3.720884919E-1,6.437910199E-1,9.512928963E0
5.211017880E0,-3.433425128E-1,6.509774923E-1,9.591980934E0
5.216068922E0,-3.649019897E-1,6.222314835E-1,9.668636322E0
5.221119963E0,-3.672975004E-1,6.389999986E-1,9.781225204E0
5.226170953E0,-3.217830062E-1,6.318135262E-1,9.853090286E0
5.231221994E0,-2.762685120E-1,6.150450110E-1,9.946514130E0
5.236273036E0,-2.714774907E-1,6.246269941E-1,1.004712582E1
5.241319755E0,-2.115900069E-1,6.222314835E-1,1.010701275E1
5.246370797E0,-1.804485023E-1,6.413955092E-1,1.008784866E1
5.251421786E0,-2.451270074E-1,6.102539897E-1,1.003035736E1
5.256472776E0,-3.026190102E-1,5.839034915E-1,1.000879765E1
5.261523869E0,-3.337605000E-1,5.719259977E-1,9.936932564E0
5.266574859E0,-3.649019897E-1,5.862990022E-1,9.915372849E0
5.271607359E0,-4.032300115E-1,6.006720066E-1,9.881835938E0
5.276658401E0,-4.391624928E-1,6.102539897E-1,9.879440308E0
5.281709390E0,-4.343715012E-1,6.222314835E-1,9.872254372E0
5.286760432E0,-4.247894883E-1,6.294180155E-1,9.889022827E0
5.291811474E0,-4.008345008E-1,6.342089772E-1,9.898604393E0
5.296862515E0,-3.313649893E-1,6.246269941E-1,9.862671852E0
5.301911786E0,-2.930369973E-1,5.910900235E-1,9.845903397E0
5.306962828E0,-2.355449945E-1,5.934854746E-1,9.819553375E0
5.312013817E0,-2.523134947E-1,6.150450110E-1,9.860276222E0
5.317064859E0,-2.355449945E-1,6.246269941E-1,9.898604393E0
5.322115901E0,-1.828439981E-1,6.893054843E-1,9.929745674E0
5.327166942E0,-1.852394938E-1,6.964920163E-1,9.944119453E0
5.332215536E0,-1.852394938E-1,6.629549861E-1,1.003754330E1
5.337266578E0,-1.828439981E-1,6.797235012E-1,1.000879765E1
5.342317619E0,-2.044035047E-1,6.413955092E-1,9.987237930E0
5.347368609E0,-2.427314967E-1,6.126495004E-1,9.999215126E0
5.352419651E0,-2.642909884E-1,5.886945128E-1,9.984842300E0
5.357470692E0,-3.169920146E-1,5.743215084E-1,9.939328194E0
5.362510276E0,-3.433425128E-1,5.791125298E-1,9.908186913E0
5.367561317E0,-3.696930110E-1,5.719259977E-1,9.869858742E0
5.372612359E0,-3.577154875E-1,5.359935164E-1,9.824343681E0
5.377663349E0,-3.433425128E-1,5.623440146E-1,9.786016464E0
5.382714390E0,-3.409470022E-1,6.126495004E-1,9.793202400E0
5.387765432E0,-3.672975004E-1,6.413955092E-1,9.805179596E0
5.392830276E0,-3.409470022E-1,6.629549861E-1,9.838717461E0
5.397881317E0,-3.313649893E-1,6.869099736E-1,9.797993660E0
5.402932359E0,-3.553200066E-1,6.629549861E-1,9.793202400E0
5.407983349E0,-3.193874955E-1,6.773279905E-1,9.795598030E0
5.413034390E0,-2.954325080E-1,7.036784887E-1,9.771642685E0
5.418085432E0,-2.666864991E-1,6.437910199E-1,9.745292664E0
5.423124286E0,-2.475225031E-1,6.126495004E-1,9.659054756E0
5.428175328E0,-2.858504951E-1,6.222314835E-1,9.623122215E0
5.433226369E0,-3.529244959E-1,6.150450110E-1,9.608749390E0
5.438277359E0,-3.625065088E-1,6.389999986E-1,9.611144066E0
5.443328401E0,-3.816705048E-1,6.389999986E-1,9.706964493E0
5.448379442E0,-3.888570070E-1,6.318135262E-1,9.716546059E0
5.453441057E0,-3.888570070E-1,6.437910199E-1,9.702173233E0
5.458492099E0,-3.792749941E-1,6.126495004E-1,9.759665489E0
5.463543088E0,-3.696930110E-1,5.982764959E-1,9.778829575E0
5.468594130E0,-3.888570070E-1,6.198359728E-1,9.762061119E0
5.473645172E0,-3.864614964E-1,5.839034915E-1,9.814762115E0
5.478696213E0,-3.529244959E-1,5.767170191E-1,9.699777603E0
5.483752047E0,-3.145965040E-1,5.719259977E-1,9.697382927E0
5.488803088E0,-2.930369973E-1,5.886945128E-1,9.663845062E0
5.493854078E0,-2.930369973E-1,6.030675173E-1,9.603958130E0
5.498905119E0,-3.074100018E-1,6.222314835E-1,9.582398415E0
5.503956161E0,-3.289695084E-1,6.509774923E-1,9.627913475E0
5.509007203E0,-3.409470022E-1,6.725370288E-1,9.668636322E0
5.514050692E0,-3.625065088E-1,7.084695101E-1,9.733315468E0
5.519101734E0,-3.625065088E-1,6.605594754E-1,9.757269859E0
5.524152776E0,-3.649019897E-1,6.437910199E-1,9.802784920E0
5.529203765E0,-3.002234995E-1,6.342089772E-1,9.797993660E0
5.534254807E0,-3.050144911E-1,6.030675173E-1,9.829134941E0
5.539305849E0,-3.649019897E-1,5.886945128E-1,9.843507767E0
5.544386265E0,-3.936479986E-1,5.599485040E-1,9.769247055E0
5.549437307E0,-4.295805097E-1,5.383890271E-1,9.750083923E0
5.554488349E0,-4.655129910E-1,5.383890271E-1,9.783620834E0
5.559539390E0,-4.655129910E-1,5.527619720E-1,9.747688293E0
5.564590432E0,-4.822815061E-1,5.910900235E-1,9.783620834E0
5.569641422E0,-4.655129910E-1,5.815079808E-1,9.795598030E0
5.574657932E0,-4.247894883E-1,5.671349764E-1,9.807575226E0
5.579708974E0,-4.080210030E-1,6.030675173E-1,9.786016464E0
5.584759963E0,-3.984389901E-1,6.150450110E-1,9.817157745E0
5.589811005E0,-3.529244959E-1,6.174405217E-1,9.824343681E0
5.594862047E0,-3.649019897E-1,6.294180155E-1,9.829134941E0
5.599913088E0,-3.720884919E-1,6.437910199E-1,9.817157745E0
5.604968505E0,-3.553200066E-1,6.437910199E-1,9.848299026E0
5.610019547E0,-3.265739977E-1,6.629549861E-1,9.855485916E0
5.615070536E0,-2.882460058E-1,6.797235012E-1,9.855485916E0
5.620121578E0,-2.618955076E-1,6.893054843E-1,9.865067482E0
5.625172619E0,-2.690820098E-1,6.940965056E-1,9.836321831E0
5.630223661E0,-2.954325080E-1,6.677460074E-1,9.814762115E0
5.635309807E0,-3.145965040E-1,6.437910199E-1,9.795598030E0
5.640360901E0,-3.265739977E-1,6.677460074E-1,9.819553375E0
5.645411890E0,-3.625065088E-1,6.653504968E-1,9.800389290E0
5.650462932E0,-3.696930110E-1,6.725370288E-1,9.793202400E0
5.655513974E0,-3.792749941E-1,6.725370288E-1,9.809970856E0
5.660565015E0,-3.912524879E-1,6.461864710E-1,9.879440308E0
5.665590692E0,-3.553200066E-1,6.940965056E-1,9.927350044E0
5.670641734E0,-3.649019897E-1,7.012829781E-1,9.917768478E0
5.675692724E0,-3.625065088E-1,6.964920163E-1,9.920164108E0
5.680743765E0,-3.792749941E-1,6.605594754E-1,9.972865105E0
5.685794807E0,-4.176029861E-1,6.677460074E-1,1.000640202E1
5.690845849E0,-4.223940074E-1,6.509774923E-1,9.927350044E0
5.695899807E0,-4.128119946E-1,6.222314835E-1,9.881835938E0
5.700950797E0,-3.744840026E-1,6.174405217E-1,9.853090286E0
5.706001838E0,-3.337605000E-1,6.006720066E-1,9.783620834E0
5.711052880E0,-3.265739977E-1,5.671349764E-1,9.680614471E0
5.716103869E0,-3.361560106E-1,5.982764959E-1,9.608749390E0
5.721154911E0,-3.385514915E-1,6.461864710E-1,9.627913475E0
5.726174182E0,-3.553200066E-1,6.461864710E-1,9.639890671E0
5.731225172E0,-3.625065088E-1,7.132604718E-1,9.668636322E0
5.736276213E0,-3.744840026E-1,7.252380252E-1,9.666240692E0
5.741327255E0,-3.361560106E-1,7.539839745E-1,9.723732948E0
5.746378297E0,-3.026190102E-1,7.515885234E-1,9.750083923E0
5.751429338E0,-3.169920146E-1,7.252380252E-1,9.747688293E0
5.756519807E0,-2.954325080E-1,6.893054843E-1,9.797993660E0
5.761570849E0,-3.217830062E-1,6.509774923E-1,9.812366486E0
5.766621890E0,-3.385514915E-1,6.366044879E-1,9.759665489E0
5.771672880E0,-3.984389901E-1,6.126495004E-1,9.757269859E0
5.776723922E0,-4.247894883E-1,5.455754995E-1,9.735710144E0
5.781774963E0,-4.271849990E-1,5.599485040E-1,9.747688293E0
5.786788453E0,-4.750950038E-1,6.102539897E-1,9.721337318E0
5.791839442E0,-4.726994932E-1,6.581640244E-1,9.733315468E0
5.796890484E0,-4.032300115E-1,7.156559825E-1,9.793202400E0
5.801941526E0,-3.649019897E-1,7.444019914E-1,9.812366486E0
5.806992567E0,-3.050144911E-1,7.659615278E-1,9.826739311E0
5.812043557E0,-2.666864991E-1,7.467975020E-1,9.829134941E0
5.817090224E0,-2.379405051E-1,7.563794851E-1,9.831530571E0
5.822141213E0,-2.067990005E-1,7.324244976E-1,9.879440308E0
5.827192255E0,-2.451270074E-1,7.252380252E-1,9.886627197E0
5.832243297E0,-2.858504951E-1,7.180514932E-1,9.920164108E0
5.837294338E0,-3.169920146E-1,6.940965056E-1,9.869858742E0
5.842345328E0,-3.577154875E-1,6.653504968E-1,9.836321831E0
5.847392255E0,-3.553200066E-1,6.629549861E-1,9.802784920E0
5.852443244E0,-3.720884919E-1,6.725370288E-1,9.797993660E0
5.857494286E0,-3.409470022E-1,6.749324799E-1,9.757269859E0
5.862545328E0,-3.409470022E-1,6.797235012E-1,9.683009148E0
5.867596369E0,-3.409470022E-1,7.156559825E-1,9.654263496E0
5.872647359E0,-3.169920146E-1,7.204470038E-1,9.606353760E0
5.877744078E0,-3.145965040E-1,7.132604718E-1,9.625517845E0
5.882795119E0,-3.505289853E-1,6.988875270E-1,9.630308151E0
5.887846161E0,-3.672975004E-1,6.893054843E-1,9.572816849E0
5.892897203E0,-3.792749941E-1,6.845145226E-1,9.599166870E0
5.897948192E0,-3.816705048E-1,6.677460074E-1,9.627913475E0
5.902999234E0,-3.816705048E-1,6.821190119E-1,9.740501404E0
5.908038661E0,-3.625065088E-1,6.797235012E-1,9.800389290E0
5.913089651E0,-3.672975004E-1,6.629549861E-1,9.853090286E0
5.918140692E0,-3.649019897E-1,6.294180155E-1,9.857880592E0
5.923191682E0,-3.936479986E-1,6.102539897E-1,9.857880592E0
5.928242776E0,-3.984389901E-1,5.839034915E-1,9.853090286E0
5.933293765E0,-4.032300115E-1,6.102539897E-1,9.824343681E0
5.938352411E0,-3.505289853E-1,5.886945128E-1,9.814762115E0
5.943403453E0,-3.553200066E-1,5.839034915E-1,9.814762115E0
5.948454494E0,-3.744840026E-1,6.126495004E-1,9.855485916E0
5.953505484E0,-3.744840026E-1,5.934854746E-1,9.795598030E0
5.958556526E0,-3.577154875E-1,5.886945128E-1,9.788411140E0
5.963607567E0,-3.696930110E-1,6.030675173E-1,9.790806770E0
5.968641734E0,-3.577154875E-1,6.557685137E-1,9.848299026E0
5.973692776E0,-3.601109982E-1,6.845145226E-1,9.874649048E0
5.978743765E0,-3.457379937E-1,7.132604718E-1,9.884231567E0
5.983794807E0,-4.032300115E-1,7.132604718E-1,9.881835938E0
5.988845849E0,-4.080210030E-1,6.653504968E-1,9.853090286E0
5.993896890E0,-3.864614964E-1,6.773279905E-1,9.807575226E0
5.998978765E0,-3.696930110E-1,6.845145226E-1,9.778829575E0
6.004029859E0,-3.912524879E-1,7.036784887E-1,9.750083923E0
6.009080849E0,-3.720884919E-1,7.372155190E-1,9.702173233E0
6.014131890E0,-3.672975004E-1,7.707524896E-1,9.678218842E0
6.019182932E0,-3.744840026E-1,7.396110296E-1,9.647076607E0
6.024233974E0,-4.223940074E-1,7.420064807E-1,9.589585304E0
6.029309182E0,-4.750950038E-1,7.324244976E-1,9.556048393E0
6.034360224E0,-4.703040123E-1,7.420064807E-1,9.582398415E0
6.039411265E0,-4.966545105E-1,7.156559825E-1,9.563234329E0
6.044462255E0,-4.822815061E-1,7.036784887E-1,9.596771240E0
6.049513297E0,-4.271849990E-1,7.324244976E-1,9.656659126E0
6.054564338E0,-4.631175101E-1,7.467975020E-1,9.726128578E0
6.059548140E0,-4.463489950E-1,7.276334763E-1,9.833926201E0
6.064599182E0,-4.271849990E-1,6.940965056E-1,9.915372849E0
6.069650224E0,-4.487445056E-1,6.773279905E-1,9.917768478E0
6.074701213E0,-5.086320043E-1,6.773279905E-1,9.994424820E0
6.079752255E0,-4.726994932E-1,6.653504968E-1,1.004952145E1
6.084803297E0,-5.062364936E-1,6.389999986E-1,1.009982681E1
6.089851786E0,-5.086320043E-1,6.701415181E-1,1.008066273E1
6.094902828E0,-4.822815061E-1,6.677460074E-1,1.007108021E1
6.099953817E0,-4.631175101E-1,6.797235012E-1,1.005910301E1
6.105004859E0,-4.271849990E-1,6.437910199E-1,1.006868458E1
6.110055901E0,-4.391624928E-1,6.246269941E-1,1.001119328E1
6.115106942E0,-4.942589998E-1,5.767170191E-1,9.896208763E0
6.120167307E0,-5.086320043E-1,6.174405217E-1,9.814762115E0
6.125218349E0,-5.613330007E-1,6.126495004E-1,9.728524208E0
6.130269390E0,-5.421689749E-1,5.934854746E-1,9.683009148E0
6.135320380E0,-5.613330007E-1,6.078584790E-1,9.668636322E0
6.140371422E0,-5.733104944E-1,6.342089772E-1,9.659054756E0
6.145422463E0,-5.110275149E-1,7.060739994E-1,9.726128578E0
6.150506057E0,-4.679085016E-1,7.108650208E-1,9.745292664E0
6.155557151E0,-4.583264887E-1,7.420064807E-1,9.790806770E0
6.160608140E0,-3.816705048E-1,7.276334763E-1,9.812366486E0
6.165659182E0,-3.672975004E-1,7.180514932E-1,9.800389290E0
6.170710224E0,-3.816705048E-1,7.108650208E-1,9.850694656E0
6.175761265E0,-3.720884919E-1,7.300289869E-1,9.819553375E0
6.180782932E0,-3.433425128E-1,7.563794851E-1,9.800389290E0
6.185833974E0,-3.720884919E-1,7.252380252E-1,9.802784920E0
6.190885015E0,-4.152075052E-1,6.797235012E-1,9.807575226E0
6.195936005E0,-4.607219994E-1,6.222314835E-1,9.776433945E0
6.200987047E0,-4.966545105E-1,5.982764959E-1,9.757269859E0
6.206038088E0,-4.990499914E-1,5.695304871E-1,9.690196037E0
6.211099390E0,-4.559310079E-1,5.862990022E-1,9.618330956E0
6.216150432E0,-3.792749941E-1,6.437910199E-1,9.639890671E0
6.221201474E0,-3.553200066E-1,7.372155190E-1,9.668636322E0
6.226252463E0,-3.265739977E-1,8.042895198E-1,9.704568863E0
6.231303557E0,-3.409470022E-1,8.330355287E-1,9.699777603E0
6.236354547E0,-2.858504951E-1,8.545950055E-1,9.690196037E0
6.241387359E0,-2.810595036E-1,8.138715029E-1,9.692591667E0
6.246438401E0,-3.217830062E-1,7.731480002E-1,9.642286301E0
6.251489442E0,-3.313649893E-1,7.180514932E-1,9.620726585E0
6.256540484E0,-3.529244959E-1,6.917009950E-1,9.690196037E0
6.261591526E0,-4.104165137E-1,6.653504968E-1,9.747688293E0
6.266642515E0,-3.744840026E-1,6.725370288E-1,9.742897034E0
6.271687619E0,-3.864614964E-1,6.677460074E-1,9.759665489E0
6.276738661E0,-4.343715012E-1,6.485819817E-1,9.838717461E0
6.281789703E0,-4.415580034E-1,6.366044879E-1,9.855485916E0
6.286840744E0,-4.583264887E-1,6.413955092E-1,9.855485916E0
6.291891786E0,-4.271849990E-1,6.461864710E-1,9.836321831E0
6.296942776E0,-4.199984968E-1,6.270225048E-1,9.831530571E0
6.301995328E0,-4.487445056E-1,5.934854746E-1,9.786016464E0
6.307046369E0,-4.343715012E-1,5.910900235E-1,9.797993660E0
6.312097411E0,-4.367670119E-1,6.342089772E-1,9.788411140E0
6.317148401E0,-3.960435092E-1,6.964920163E-1,9.793202400E0
6.322199442E0,-4.008345008E-1,7.252380252E-1,9.754874229E0
6.327250484E0,-3.649019897E-1,7.491930127E-1,9.723732948E0
6.332302255E0,-3.289695084E-1,7.875210047E-1,9.647076607E0
6.337353297E0,-2.906414866E-1,8.162670135E-1,9.594375610E0
6.342404338E0,-2.978279889E-1,8.066849709E-1,9.553652763E0
6.347455328E0,-3.169920146E-1,7.803344727E-1,9.594375610E0
6.352506369E0,-3.601109982E-1,7.731480002E-1,9.651867867E0
6.357557411E0,-4.104165137E-1,7.851254940E-1,9.647076607E0
6.362619026E0,-4.223940074E-1,7.132604718E-1,9.730919838E0
6.367670067E0,-4.367670119E-1,7.180514932E-1,9.781225204E0
6.372721109E0,-4.583264887E-1,6.940965056E-1,9.814762115E0
6.377772099E0,-4.367670119E-1,6.557685137E-1,9.877044678E0
6.382823140E0,-4.894680083E-1,6.342089772E-1,9.915372849E0
6.387874182E0,-4.894680083E-1,6.150450110E-1,9.963282585E0
6.392915797E0,-5.134230256E-1,5.743215084E-1,9.968073845E0
6.397966838E0,-5.277959704E-1,5.383890271E-1,9.936932564E0
6.403017880E0,-4.966545105E-1,5.264114738E-1,9.867463112E0
6.408068922E0,-5.206094980E-1,5.000609756E-1,9.836321831E0
6.413119963E0,-4.846769869E-1,4.880835116E-1,9.819553375E0
6.418170953E0,-5.254005194E-1,4.832924902E-1,9.807575226E0
6.423211161E0,-5.182139874E-1,5.024564862E-1,9.819553375E0
6.428262203E0,-5.254005194E-1,5.216205120E-1,9.800389290E0
6.433313244E0,-5.661240220E-1,5.527619720E-1,9.843507767E0
6.438364286E0,-5.301914811E-1,5.623440146E-1,9.850694656E0
6.443415328E0,-5.469599962E-1,5.958809853E-1,9.915372849E0
6.448466317E0,-5.349825025E-1,6.006720066E-1,9.903395653E0
6.453520692E0,-5.158184767E-1,6.126495004E-1,9.924955368E0
6.458571734E0,-4.870724976E-1,6.174405217E-1,9.910581589E0
6.463622776E0,-4.655129910E-1,6.174405217E-1,9.898604393E0
6.468673817E0,-4.391624928E-1,5.910900235E-1,9.817157745E0
6.473724859E0,-4.128119946E-1,5.839034915E-1,9.738105774E0
6.478775849E0,-4.415580034E-1,5.910900235E-1,9.680614471E0
6.483839547E0,-4.726994932E-1,6.126495004E-1,9.671031952E0
6.488890588E0,-5.349825025E-1,6.605594754E-1,9.699777603E0
6.493941630E0,-5.134230256E-1,6.797235012E-1,9.690196037E0
6.498992619E0,-4.655129910E-1,7.156559825E-1,9.656659126E0
6.504043661E0,-4.703040123E-1,6.964920163E-1,9.644681931E0
6.509094703E0,-4.463489950E-1,7.228425145E-1,9.697382927E0
6.514147047E0,-4.128119946E-1,6.917009950E-1,9.706964493E0
6.519198088E0,-4.032300115E-1,6.845145226E-1,9.716546059E0
6.524249130E0,-4.319759905E-1,6.629549861E-1,9.762061119E0
6.529300172E0,-4.511399865E-1,6.725370288E-1,9.786016464E0
6.534351213E0,-4.487445056E-1,6.797235012E-1,9.814762115E0
6.539402203E0,-4.176029861E-1,6.821190119E-1,9.855485916E0
6.544450119E0,-3.936479986E-1,7.228425145E-1,9.901000023E0
6.549501161E0,-3.936479986E-1,7.252380252E-1,9.884231567E0
6.554552203E0,-3.744840026E-1,7.108650208E-1,9.881835938E0
6.559603192E0,-3.649019897E-1,7.515885234E-1,9.862671852E0
6.564654234E0,-3.960435092E-1,7.276334763E-1,9.867463112E0
6.569705276E0,-4.415580034E-1,6.988875270E-1,9.865067482E0
6.574816734E0,-4.750950038E-1,7.228425145E-1,9.833926201E0
6.579867776E0,-4.726994932E-1,7.108650208E-1,9.867463112E0
6.584918817E0,-4.679085016E-1,7.276334763E-1,9.829134941E0
6.589969859E0,-4.631175101E-1,6.940965056E-1,9.819553375E0
6.595020901E0,-4.199984968E-1,6.509774923E-1,9.769247055E0
6.600071890E0,-4.463489950E-1,6.437910199E-1,9.735710144E0
6.605048349E0,-4.223940074E-1,6.797235012E-1,9.716546059E0
6.610099390E0,-4.295805097E-1,7.084695101E-1,9.742897034E0
6.615150432E0,-4.559310079E-1,7.228425145E-1,9.745292664E0
6.620201474E0,-4.247894883E-1,7.563794851E-1,9.733315468E0
6.625252515E0,-4.176029861E-1,7.467975020E-1,9.723732948E0
6.630303505E0,-4.080210030E-1,7.611705065E-1,9.723732948E0
6.635357203E0,-3.864614964E-1,7.563794851E-1,9.771642685E0
6.640408244E0,-4.080210030E-1,7.036784887E-1,9.766852379E0
6.645459286E0,-4.319759905E-1,7.276334763E-1,9.762061119E0
6.650510328E0,-4.415580034E-1,7.204470038E-1,9.812366486E0
6.655561369E0,-4.703040123E-1,7.012829781E-1,9.805179596E0
6.660612359E0,-4.990499914E-1,6.988875270E-1,9.771642685E0
6.665675849E0,-5.349825025E-1,6.605594754E-1,9.850694656E0
6.670726890E0,-5.565419793E-1,6.437910199E-1,9.896208763E0
6.675777932E0,-5.541465282E-1,6.749324799E-1,9.989633560E0
6.680828922E0,-5.613330007E-1,6.437910199E-1,9.996820450E0
6.685879963E0,-5.373780131E-1,6.030675173E-1,1.001598358E1
6.690931005E0,-5.038409829E-1,6.126495004E-1,1.000161076E1
6.695974182E0,-5.086320043E-1,6.102539897E-1,9.989633560E0
6.701025224E0,-4.726994932E-1,6.413955092E-1,9.924955368E0
6.706076265E0,-4.774905145E-1,6.222314835E-1,9.836321831E0
6.711127255E0,-4.798859954E-1,6.773279905E-1,9.790806770E0
6.716178297E0,-5.397735238E-1,6.821190119E-1,9.788411140E0
6.721229338E0,-5.613330007E-1,7.036784887E-1,9.709360123E0
6.726271994E0,-5.852879882E-1,6.749324799E-1,9.685404778E0
6.731322984E0,-5.421689749E-1,6.821190119E-1,9.620726585E0
6.736374026E0,-4.655129910E-1,6.845145226E-1,9.651867867E0
6.741425067E0,-4.128119946E-1,6.749324799E-1,9.728524208E0
6.746476109E0,-3.960435092E-1,7.012829781E-1,9.793202400E0
6.751527151E0,-3.601109982E-1,6.725370288E-1,9.872254372E0
6.756603765E0,-3.984389901E-1,6.366044879E-1,9.917768478E0
6.761654807E0,-4.750950038E-1,5.910900235E-1,1.004712582E1
6.766705849E0,-5.301914811E-1,5.312024951E-1,1.009263992E1
6.771756890E0,-5.637285113E-1,4.904789925E-1,1.011419964E1
6.776807932E0,-6.116384864E-1,4.401735067E-1,1.013575935E1
6.781858922E0,-6.020565033E-1,3.778904974E-1,1.015013218E1
6.786874755E0,-5.876834989E-1,3.707039952E-1,1.010461712E1
6.791925744E0,-5.733104944E-1,3.347715139E-1,1.002796173E1
6.796976786E0,-5.781015158E-1,3.443534970E-1,9.953701019E0
6.802027880E0,-5.541465282E-1,3.659130037E-1,9.869858742E0
6.807078869E0,-5.110275149E-1,4.114274979E-1,9.757269859E0
6.812129911E0,-4.870724976E-1,4.856880009E-1,9.668636322E0
6.817206005E0,-4.271849990E-1,5.623440146E-1,9.587189674E0
6.822256994E0,-3.912524879E-1,6.198359728E-1,9.532093048E0
6.827308088E0,-3.888570070E-1,6.366044879E-1,9.448250771E0
6.832359078E0,-4.056254923E-1,6.437910199E-1,9.438668251E0
6.837410119E0,-3.864614964E-1,6.845145226E-1,9.429086685E0
6.842461161E0,-3.505289853E-1,6.917009950E-1,9.402735710E0
6.847521994E0,-4.008345008E-1,6.246269941E-1,9.438668251E0
6.852573036E0,-4.271849990E-1,5.839034915E-1,9.426691055E0
6.857624078E0,-4.559310079E-1,5.144339800E-1,9.407526970E0
6.862675119E0,-4.798859954E-1,4.329870045E-1,9.424295425E0
6.867726161E0,-4.918634892E-1,4.329870045E-1,9.460227966E0
6.872777151E0,-4.918634892E-1,4.210095108E-1,9.568025589E0
6.877832724E0,-4.535354972E-1,4.377779961E-1,9.601562500E0
6.882883765E0,-4.487445056E-1,4.210095108E-1,9.740501404E0
6.887934807E0,-4.631175101E-1,4.138230085E-1,9.879440308E0
6.892985849E0,-4.559310079E-1,4.210095108E-1,9.936932564E0
6.898036890E0,-4.726994932E-1,4.665240049E-1,9.960887909E0
6.903087880E0,-4.679085016E-1,4.761059880E-1,9.965678215E0
6.908104911E0,-4.391624928E-1,4.856880009E-1,9.989633560E0
6.913155901E0,-4.247894883E-1,4.785014987E-1,9.946514130E0
6.918206942E0,-4.391624928E-1,4.593375027E-1,9.884231567E0
6.923257984E0,-4.415580034E-1,4.976654947E-1,9.881835938E0
6.928309026E0,-4.104165137E-1,5.192250013E-1,9.843507767E0
6.933360015E0,-3.888570070E-1,5.671349764E-1,9.833926201E0
6.938440380E0,-4.008345008E-1,6.102539897E-1,9.807575226E0
6.943491422E0,-4.463489950E-1,6.294180155E-1,9.764456749E0
6.948542463E0,-4.607219994E-1,6.246269941E-1,9.752478600E0
6.953593505E0,-4.631175101E-1,6.222314835E-1,9.747688293E0
6.958644547E0,-4.894680083E-1,6.366044879E-1,9.738105774E0
6.963695536E0,-5.182139874E-1,6.533730030E-1,9.747688293E0
6.968743765E0,-5.421689749E-1,6.797235012E-1,9.745292664E0
6.973794807E0,-5.349825025E-1,6.773279905E-1,9.697382927E0
6.978845849E0,-5.206094980E-1,6.605594754E-1,9.704568863E0
6.983896890E0,-5.086320043E-1,6.533730030E-1,9.709360123E0
6.988947932E0,-5.014454722E-1,7.132604718E-1,9.692591667E0
6.993998974E0,-5.661240220E-1,6.893054843E-1,9.675823212E0
6.999040484E0,-5.421689749E-1,6.917009950E-1,9.637495041E0
7.004091526E0,-5.685194731E-1,7.036784887E-1,9.587189674E0
7.009142567E0,-5.685194731E-1,7.803344727E-1,9.580002785E0
7.014193609E0,-5.541465282E-1,8.114759922E-1,9.584794044E0
7.019244651E0,-5.493555069E-1,8.545950055E-1,9.630308151E0
7.024295640E0,-5.493555069E-1,8.713635206E-1,9.635099411E0
7.029342255E0,-5.158184767E-1,8.713635206E-1,9.659054756E0
7.034393297E0,-5.301914811E-1,8.713635206E-1,9.702173233E0
7.039444338E0,-5.182139874E-1,9.216690063E-1,9.766852379E0
7.044495328E0,-4.918634892E-1,9.504150152E-1,9.889022827E0
7.049546369E0,-5.086320043E-1,9.432284832E-1,9.958492279E0
7.054597411E0,-5.541465282E-1,9.456239939E-1,1.007587147E1
7.059647411E0,-5.493555069E-1,9.743700027E-1,1.015731812E1
7.064698453E0,-5.349825025E-1,9.432284832E-1,1.016929626E1
7.069749494E0,-4.750950038E-1,9.072960019E-1,1.015252781E1
7.074800484E0,-4.463489950E-1,9.528105259E-1,1.012378120E1
7.079851526E0,-4.128119946E-1,9.264600277E-1,1.002317047E1
7.084902567E0,-4.176029861E-1,9.504150152E-1,9.941723824E0
7.089952203E0,-4.032300115E-1,1.003116012E0,9.869858742E0
7.095003244E0,-4.487445056E-1,1.051025987E0,9.805179596E0
7.100054286E0,-4.439535141E-1,1.079771996E0,9.800389290E0
7.105105276E0,-4.966545105E-1,1.120495558E0,9.783620834E0
7.110156369E0,-5.373780131E-1,1.091749549E0,9.819553375E0
7.115207359E0,-5.565419793E-1,1.103726983E0,9.903395653E0
7.120253140E0,-5.948699713E-1,1.101331472E0,9.992029190E0
7.125304078E0,-5.924745202E-1,1.067794442E0,1.000400639E1
7.130355067E0,-6.188250184E-1,1.024675488E0,1.011180401E1
7.135406005E0,-6.068475246E-1,1.012698054E0,1.020762444E1
7.140456994E0,-5.828924775E-1,1.010302544E0,1.021481037E1
7.145507932E0,-5.589374900E-1,9.959294796E-1,1.022918320E1
7.150585067E0,-5.541465282E-1,9.935340285E-1,1.020283318E1
7.155635953E0,-5.158184767E-1,1.012698054E0,1.015252781E1
7.160686942E0,-5.014454722E-1,9.815564752E-1,1.009743118E1
7.165737880E0,-4.870724976E-1,1.012698054E0,1.009503555E1
7.170788817E0,-5.182139874E-1,1.027070999E0,1.005431175E1
7.175839807E0,-5.110275149E-1,1.036653042E0,1.001358891E1
7.180881057E0,-4.942589998E-1,1.122890949E0,9.960887909E0
7.185931994E0,-4.511399865E-1,1.154032469E0,9.869858742E0
7.190982932E0,-4.271849990E-1,1.173196554E0,9.881835938E0
7.196033869E0,-3.912524879E-1,1.154032469E0,9.812366486E0
7.201084807E0,-3.672975004E-1,1.156427979E0,9.735710144E0
7.206135797E0,-3.577154875E-1,1.182778478E0,9.694987297E0
7.211178557E0,-3.409470022E-1,1.237874985E0,9.666240692E0
7.216229547E0,-3.433425128E-1,1.240270495E0,9.659054756E0
7.221280484E0,-3.481335044E-1,1.295367002E0,9.675823212E0
7.226331422E0,-3.625065088E-1,1.328904033E0,9.673427582E0
7.231382359E0,-3.409470022E-1,1.290575981E0,9.635099411E0
7.236433349E0,-3.265739977E-1,1.278598547E0,9.623122215E0
7.241490901E0,-3.505289853E-1,1.316926479E0,9.613539696E0
7.246541838E0,-3.385514915E-1,1.309739947E0,9.618330956E0
7.251592776E0,-3.289695084E-1,1.302553535E0,9.603958130E0
7.256643765E0,-3.265739977E-1,1.297762513E0,9.587189674E0
7.261694703E0,-2.858504951E-1,1.273807526E0,9.512928963E0
7.266745640E0,-2.834550142E-1,1.247457027E0,9.491369247E0
7.271786942E0,-2.547090054E-1,1.276203036E0,9.496160507E0
7.276837880E0,-2.259629965E-1,1.312135458E0,9.522510529E0
7.281888817E0,-1.804485023E-1,1.302553535E0,9.560838699E0
7.286939807E0,-1.852394938E-1,1.326508522E0,9.623122215E0
7.291990744E0,-1.253519952E-1,1.400768995E0,9.654263496E0
7.297041682E0,-5.588249862E-2,1.467843056E0,9.699777603E0
7.302088765E0,1.119150035E-2,1.489402533E0,9.735710144E0
7.307139703E0,9.742949903E-2,1.498984456E0,9.783620834E0
7.312190692E0,1.645034999E-1,1.551685452E0,9.800389290E0
7.317241682E0,1.764809936E-1,1.556476474E0,9.874649048E0
7.322292567E0,1.645034999E-1,1.582826972E0,9.936932564E0
7.327343557E0,1.094070002E-1,1.604386449E0,9.924955368E0
7.332393661E0,6.389249861E-2,1.580431461E0,9.898604393E0
7.337444599E0,2.556449920E-2,1.582826972E0,9.836321831E0
7.342495588E0,1.837800071E-2,1.585222483E0,9.740501404E0
7.347546526E0,1.119150035E-2,1.544499040E0,9.668636322E0
7.352597463E0,-3.432299942E-2,1.537312508E0,9.570421219E0
7.357648453E0,-3.192749992E-2,1.546894550E0,9.498556137E0
7.362701942E0,3.035550006E-2,1.554080963E0,9.453041077E0
7.367752880E0,-7.859999896E-4,1.570849538E0,9.378781319E0
7.372803869E0,-7.859999896E-4,1.561267495E0,9.393154144E0
7.377854807E0,-1.995000057E-2,1.594804525E0,9.383571625E0
7.382905744E0,-6.306900084E-2,1.604386449E0,9.345244408E0
7.387956734E0,-9.181500226E-2,1.609177470E0,9.433877945E0
7.393010276E0,-1.013970003E-1,1.580431461E0,9.484183311E0
7.398061213E0,-1.157699972E-1,1.556476474E0,9.551257133E0
7.403112151E0,-1.157699972E-1,1.520544052E0,9.608749390E0
7.408163140E0,-7.265099883E-2,1.520544052E0,9.606353760E0
7.413214078E0,-8.223299682E-2,1.542103529E0,9.637495041E0
7.418265015E0,-9.900149703E-2,1.570849538E0,9.771642685E0
7.423315484E0,-1.109789982E-1,1.652296543E0,9.824343681E0
7.428366422E0,-1.157699972E-1,1.671460509E0,9.812366486E0
7.433417359E0,-7.265099883E-2,1.664273977E0,9.774038315E0
7.438468349E0,-3.911399841E-2,1.757698536E0,9.735710144E0
7.443519286E0,1.609500032E-3,1.796026468E0,9.704568863E0
7.448570224E0,3.514650092E-2,1.839145541E0,9.627913475E0
7.453622619E0,3.275100142E-2,1.889451027E0,9.589585304E0
7.458673557E0,-7.265099883E-2,1.829563498E0,9.558443069E0
7.463724494E0,-1.804485023E-1,1.836750031E0,9.488973618E0
7.468775484E0,-3.145965040E-1,1.831959009E0,9.472205162E0
7.473826474E0,-3.816705048E-1,1.791235447E0,9.433877945E0
7.478877411E0,-4.463489950E-1,1.748116493E0,9.390758514E0
7.483920588E0,-4.487445056E-1,1.731348038E0,9.338057518E0
7.488971526E0,-4.511399865E-1,1.704997540E0,9.318893433E0
7.494022515E0,-4.176029861E-1,1.647505522E0,9.247028351E0
7.499073453E0,-3.888570070E-1,1.623550534E0,9.242237091E0
7.504124390E0,-4.032300115E-1,1.580431461E0,9.179954529E0
7.509175380E0,-4.511399865E-1,1.566058517E0,9.196722984E0
7.514226213E0,-4.511399865E-1,1.587617993E0,9.225468636E0
7.519277151E0,-4.726994932E-1,1.592409015E0,9.268588066E0
7.524328140E0,-5.110275149E-1,1.642714500E0,9.306916237E0
7.529379078E0,-4.726994932E-1,1.637923479E0,9.347639084E0
7.534430015E0,-4.056254923E-1,1.669064999E0,9.395549774E0
7.539481005E0,-3.265739977E-1,1.728952527E0,9.412318230E0
7.544564390E0,-2.044035047E-1,1.748116493E0,9.496160507E0
7.549615328E0,-9.660600126E-2,1.748116493E0,9.524906158E0
7.554666265E0,-5.827800184E-2,1.793630958E0,9.575211525E0
7.559717203E0,-5.827800184E-2,1.793630958E0,9.563234329E0
7.564768192E0,-5.827800184E-2,1.829563498E0,9.584794044E0
7.569819130E0,-3.911399841E-2,1.855913997E0,9.510533333E0
7.574844026E0,-3.181499895E-3,1.920592546E0,9.491369247E0
7.579894963E0,7.347449660E-2,1.968502522E0,9.441063881E0
7.584945901E0,1.022204980E-1,2.023598909E0,9.426691055E0
7.589996890E0,1.477349997E-1,2.078695536E0,9.366803169E0
7.595047828E0,2.172044963E-1,2.117023468E0,9.338057518E0
7.600098765E0,2.794874907E-1,2.143373966E0,9.330870628E0
7.605156317E0,3.561435044E-1,2.155351400E0,9.376385689E0
7.610207307E0,3.489570022E-1,2.234402895E0,9.381176949E0
7.615258192E0,4.208219945E-1,2.255962610E0,9.373990059E0
7.620309182E0,4.615454972E-1,2.239193916E0,9.359617233E0
7.625360119E0,4.184265137E-1,2.222425461E0,9.321289062E0
7.630411057E0,4.088445008E-1,2.200865984E0,9.290147781E0
7.635458453E0,3.537479937E-1,2.114628077E0,9.268588066E0
7.640509390E0,3.082334995E-1,2.047554016E0,9.297333717E0
7.645560328E0,2.411594987E-1,1.922988057E0,9.268588066E0
7.650611317E0,1.932494938E-1,1.855913997E0,9.321289062E0
7.655662255E0,1.261754930E-1,1.769675970E0,9.362012863E0
7.660713192E0,5.191500112E-2,1.690624475E0,9.421899796E0
7.665756474E0,1.598249935E-2,1.676251531E0,9.460227966E0
7.670807411E0,-4.630050063E-2,1.678647041E0,9.601562500E0
7.675858401E0,-9.900149703E-2,1.623550534E0,9.685404778E0
7.680909338E0,-1.540980041E-1,1.568454027E0,9.730919838E0
7.685960328E0,-2.091944963E-1,1.518148541E0,9.764456749E0
7.691011265E0,-2.547090054E-1,1.455865502E0,9.774038315E0
7.696061369E0,-2.882460058E-1,1.436701536E0,9.759665489E0
7.701112307E0,-3.337605000E-1,1.415142059E0,9.764456749E0
7.706163297E0,-3.074100018E-1,1.393582463E0,9.795598030E0
7.711214234E0,-2.882460058E-1,1.410351038E0,9.833926201E0
7.716265172E0,-3.098055124E-1,1.412746549E0,9.836321831E0
7.721316161E0,-3.361560106E-1,1.407955527E0,9.841112137E0
7.726379963E0,-2.978279889E-1,1.424723983E0,9.843507767E0
7.731430901E0,-1.996124983E-1,1.451074481E0,9.790806770E0
7.736481838E0,-1.349339932E-1,1.508566499E0,9.747688293E0
7.741532828E0,-1.253519952E-1,1.527730465E0,9.718941689E0
7.746583765E0,-1.469115019E-1,1.542103529E0,9.680614471E0
7.751634755E0,-1.828439981E-1,1.573245049E0,9.659054756E0
7.756699338E0,-2.115900069E-1,1.498984456E0,9.627913475E0
7.761750276E0,-2.714774907E-1,1.448678970E0,9.675823212E0
7.766801265E0,-3.337605000E-1,1.400768995E0,9.716546059E0
7.771852203E0,-3.553200066E-1,1.405560017E0,9.817157745E0
7.776903140E0,-3.553200066E-1,1.374418497E0,9.874649048E0
7.781954130E0,-3.457379937E-1,1.350463510E0,9.932141304E0
7.787002359E0,-4.199984968E-1,1.326508522E0,1.003993893E1
7.792053297E0,-4.583264887E-1,1.297762513E0,1.010940838E1
7.797104286E0,-4.583264887E-1,1.245061517E0,1.015731812E1
7.802155224E0,-4.583264887E-1,1.204337955E0,1.020762444E1
7.807206213E0,-4.391624928E-1,1.170801044E0,1.026751137E1
7.812257151E0,-3.768795133E-1,1.211524487E0,1.032739925E1
7.817291422E0,-3.026190102E-1,1.206733465E0,1.042082310E1
7.822342411E0,-2.163809985E-1,1.259434462E0,1.053341198E1
7.827393349E0,-1.421204954E-1,1.333695054E0,1.058132172E1
7.832444286E0,-1.397249997E-1,1.465447545E0,1.059329987E1
7.837495224E0,-9.660600126E-2,1.513357520E0,1.059090424E1
7.842546213E0,-5.576999858E-3,1.561267495E0,1.058850861E1
7.847604390E0,9.263850003E-2,1.594804525E0,1.062683678E1
7.852655380E0,2.267864943E-1,1.582826972E0,1.070588779E1
7.857706369E0,3.154200017E-1,1.558871984E0,1.082326794E1
7.862757255E0,3.273974955E-1,1.494193554E0,1.108916759E1
7.867808244E0,3.034425080E-1,1.434306026E0,1.123529339E1
7.872859234E0,2.196000069E-1,1.343276978E0,1.139818764E1
7.877915015E0,1.189889982E-1,1.206733465E0,1.156587219E1
7.882965953E0,-1.276350021E-2,1.031862020E0,1.170720673E1
7.888016942E0,-1.157699972E-1,8.258489966E-1,1.171918488E1
7.893067880E0,-1.924259961E-1,6.677460074E-1,1.176949024E1
7.898118817E0,-2.091944963E-1,5.144339800E-1,1.181739998E1
7.903169807E0,-2.115900069E-1,3.922635019E-1,1.177667618E1
7.908234703E0,-1.493069977E-1,3.203985095E-1,1.177428055E1
7.913285640E0,-2.163809985E-1,2.269739956E-1,1.178386307E1
7.918336630E0,-3.026190102E-1,2.221830040E-1,1.174074364E1
7.923387567E0,-3.984389901E-1,1.742729992E-1,1.172876644E1
7.928438505E0,-4.822815061E-1,7.126650214E-2,1.168804264E1
7.933489494E0,-5.134230256E-1,1.617000066E-2,1.166648388E1
7.938537411E0,-5.445644855E-1,-5.809050053E-2,1.159940910E1
7.943588401E0,-5.373780131E-1,-1.323509961E-1,1.158024597E1
7.948639338E0,-5.038409829E-1,-1.539105028E-1,1.153233528E1
7.953690276E0,-4.631175101E-1,-2.018204927E-1,1.149400711E1
7.958741213E0,-4.056254923E-1,-1.443285048E-1,1.144849300E1
7.963792203E0,-3.361560106E-1,-9.402299672E-2,1.136944103E1
7.968811578E0,-2.571044862E-1,-2.694899961E-2,1.131194973E1
7.973862567E0,-2.259629965E-1,6.647550315E-2,1.110114574E1
7.978913557E0,-1.996124983E-1,1.551090032E-1,1.089034176E1
7.983964494E0,-2.211720049E-1,2.245784998E-1,1.055976295E1
7.989015432E0,-2.547090054E-1,2.916525006E-1,1.026032543E1
7.994066369E0,-3.481335044E-1,4.353824854E-1,9.862671852E0
7.999144807E0,-4.223940074E-1,5.240160227E-1,9.412318230E0
8.004195744E0,-4.990499914E-1,6.102539897E-1,9.091320992E0
8.009246734E0,-5.038409829E-1,7.324244976E-1,8.600243568E0
8.014297672E0,-5.541465282E-1,8.521994948E-1,8.058860779E0
8.019348661E0,-6.379889846E-1,9.719744921E-1,7.608506680E0
8.024399599E0,-7.194359899E-1,1.063003540E0,7.179711819E0
8.029443088E0,-8.056740165E-1,1.194756031E0,6.877879143E0
8.034493974E0,-9.565904737E-1,1.364836454E0,6.703007698E0
8.039544963E0,-1.131461978E0,1.527730465E0,6.535322666E0
8.044595901E0,-1.227282047E0,1.616364002E0,6.552091122E0
8.049646838E0,-1.301542521E0,1.738534451E0,6.707798481E0
8.054697828E0,-1.272796512E0,1.750512004E0,7.064727783E0
8.059725276E0,-1.176976442E0,1.666669488E0,7.512686729E0
8.064776213E0,-1.016477942E0,1.566058517E0,7.996577263E0
8.069827203E0,-8.655614853E-1,1.465447545E0,8.466095924E0
8.074878140E0,-7.577639818E-1,1.331299543E0,8.832607269E0
8.079929130E0,-7.242270112E-1,1.197151542E0,9.352430344E0
8.084980067E0,-6.667349935E-1,1.067794442E0,9.778829575E0
8.090049442E0,-6.260114908E-1,9.576014876E-1,1.011180401E1
8.095100380E0,-6.667349935E-1,8.066849709E-1,1.039447308E1
8.100151317E0,-7.098540068E-1,6.917009950E-1,1.054778481E1
8.105202307E0,-7.386000156E-1,6.078584790E-1,1.065558243E1
8.110253244E0,-6.954810023E-1,5.719259977E-1,1.068432808E1
8.115304182E0,-7.194359899E-1,6.078584790E-1,1.059569454E1
8.120344963E0,-7.338089943E-1,6.461864710E-1,1.044956970E1
8.125395901E0,-7.314134836E-1,7.971029878E-1,1.026272011E1
8.130446890E0,-6.954810023E-1,9.647880197E-1,1.005191612E1
8.135497828E0,-6.044520140E-1,1.127681971E0,9.807575226E0
8.140548817E0,-4.463489950E-1,1.297762513E0,9.580002785E0
8.145599755E0,-3.720884919E-1,1.460656524E0,9.373990059E0
8.150653922E0,-2.642909884E-1,1.633132458E0,9.199118614E0
8.155704859E0,-1.205610037E-1,1.745720983E0,9.055388451E0
8.160755849E0,-2.713650092E-2,1.822376966E0,8.938009262E0
8.165806786E0,-3.432299942E-2,1.827167988E0,8.779906273E0
8.170857776E0,-5.588249862E-2,1.894242048E0,8.621803284E0
8.175908713E0,-1.564934999E-1,1.865496039E0,8.523587227E0
8.180964390E0,-3.481335044E-1,1.798421979E0,8.415789604E0
8.186015328E0,-5.493555069E-1,1.743325472E0,8.384648323E0
8.191066317E0,-7.649505138E-1,1.621155024E0,8.387043953E0
8.196117307E0,-9.517995119E-1,1.491798043E0,8.408603668E0
8.201168244E0,-1.066783547E0,1.391186953E0,8.470886230E0
8.206219234E0,-1.102715969E0,1.261829972E0,8.569102287E0
8.211281630E0,-1.085947514E0,1.137264013E0,8.681690216E0
8.216332567E0,-1.138648510E0,1.065399051E0,8.796674728E0
8.221383557E0,-1.088343024E0,1.043839455E0,8.921240807E0
8.226434547E0,-1.021268964E0,1.082167506E0,8.976337433E0
8.231485484E0,-9.134715199E-1,1.139659524E0,9.029038429E0
8.236536474E0,-8.631659746E-1,1.206733465E0,9.086529732E0
8.241564494E0,-8.368154764E-1,1.276203036E0,9.062575340E0
8.246615432E0,-7.841144800E-1,1.352859020E0,8.978732109E0
8.251666422E0,-7.290179729E-1,1.465447545E0,8.916449547E0
8.256717411E0,-6.427800059E-1,1.601991057E0,8.846980095E0
8.261768349E0,-5.134230256E-1,1.681042552E0,8.758346558E0
8.266819338E0,-4.104165137E-1,1.769675970E0,8.705645561E0
8.271879182E0,-2.954325080E-1,1.877473474E0,8.684085846E0
8.276930172E0,-1.996124983E-1,1.997248530E0,8.710436821E0
8.281981109E0,-1.445160061E-1,2.095463991E0,8.696063042E0
8.287032047E0,-1.085835025E-1,2.198470592E0,8.717622757E0
8.292083036E0,-1.780530065E-1,2.215239048E0,8.796674728E0
8.297133974E0,-2.475225031E-1,2.229612112E0,8.870935440E0
8.302186161E0,-3.505289853E-1,2.234402895E0,8.964359283E0
8.307237099E0,-5.134230256E-1,2.193679571E0,9.112880707E0
8.312288088E0,-6.260114908E-1,2.133791924E0,9.263796806E0
8.317339026E0,-6.858990192E-1,2.078695536E0,9.350034714E0
8.322390015E0,-7.433909774E-1,1.982875466E0,9.409922600E0
8.327440953E0,-7.122495174E-1,1.903823972E0,9.421899796E0
8.332496578E0,-6.595485210E-1,1.863100529E0,9.429086685E0
8.337547515E0,-5.948699713E-1,1.798421979E0,9.388362885E0
8.342598505E0,-5.948699713E-1,1.796026468E0,9.373990059E0
8.347649442E0,-6.691305041E-1,1.815190554E0,9.352430344E0
8.352700432E0,-7.242270112E-1,1.875077963E0,9.302124977E0
8.357751369E0,-7.745324969E-1,1.934965491E0,9.321289062E0
8.362795536E0,-8.104649782E-1,1.980479956E0,9.266192436E0
8.367846474E0,-8.128604889E-1,2.021203518E0,9.247028351E0
8.372897463E0,-8.200470209E-1,2.081090927E0,9.237446785E0
8.377948401E0,-7.601594925E-1,2.162538052E0,9.227864265E0
8.382999390E0,-7.122495174E-1,2.186492920E0,9.254215240E0
8.388050328E0,-6.787124872E-1,2.188888550E0,9.290147781E0
8.393091994E0,-7.194359899E-1,2.193679571E0,9.352430344E0
8.398142932E0,-7.913010120E-1,2.131396532E0,9.436272621E0
8.403193922E0,-8.320245147E-1,2.090672970E0,9.536884308E0
8.408244911E0,-8.990985155E-1,2.045158386E0,9.639890671E0
8.413295849E0,-9.541950226E-1,1.987666488E0,9.764456749E0
8.418346838E0,-8.943074942E-1,1.975689054E0,9.867463112E0
8.423405640E0,-8.248379827E-1,1.961315989E0,9.939328194E0
8.428456578E0,-7.817190289E-1,1.922988057E0,1.004952145E1
8.433507567E0,-7.841144800E-1,1.865496039E0,1.011899090E1
8.438558557E0,-8.200470209E-1,1.848727465E0,1.020043755E1
8.443609494E0,-8.487930298E-1,1.836750031E0,1.027948856E1
8.448660484E0,-8.943074942E-1,1.815190554E0,1.032979488E1
8.453718349E0,-8.871210217E-1,1.853518486E0,1.034177208E1
8.458769286E0,-8.583750129E-1,1.882264495E0,1.034895897E1
8.463820276E0,-7.817190289E-1,1.891846538E0,1.033698082E1
8.468871213E0,-6.715260148E-1,1.906219482E0,1.029386234E1
8.473922203E0,-5.637285113E-1,1.901428461E0,1.029386234E1
8.478973140E0,-4.798859954E-1,1.889451027E0,1.039926434E1
8.484019755E0,-3.481335044E-1,1.875077963E0,1.047591972E1
8.489070692E0,-2.738730013E-1,1.841541052E0,1.056694889E1
8.494121682E0,-2.115900069E-1,1.815190554E0,1.071547031E1
8.499172619E0,-2.379405051E-1,1.784049034E0,1.089752769E1
8.504223609E0,-3.265739977E-1,1.743325472E0,1.114905548E1
8.509274547E0,-4.607219994E-1,1.781653523E0,1.142453766E1
8.514332307E0,-6.020565033E-1,1.841541052E0,1.165211010E1
8.519383244E0,-6.906899810E-1,1.800817490E0,1.171918488E1
8.524434234E0,-7.697414756E-1,1.738534451E0,1.173355770E1
8.529485172E0,-7.841144800E-1,1.640318990E0,1.169762516E1
8.534536161E0,-6.355934739E-1,1.520544052E0,1.162815571E1
8.539587099E0,-5.469599962E-1,1.388791442E0,1.150119400E1
8.544638505E0,-4.152075052E-1,1.300158024E0,1.140058327E1
8.549689442E0,-2.954325080E-1,1.211524487E0,1.143412018E1
8.554740432E0,-2.355449945E-1,1.225897551E0,1.147244835E1
8.559791369E0,-2.690820098E-1,1.266620994E0,1.145328426E1
8.564842359E0,-2.978279889E-1,1.343276978E0,1.147963428E1
8.569893297E0,-3.050144911E-1,1.407955527E0,1.147723866E1
8.574934026E0,-2.451270074E-1,1.460656524E0,1.143891144E1
8.579984963E0,-1.948215067E-1,1.405560017E0,1.134788227E1
8.585036005E0,-1.972170025E-1,1.271412015E0,1.122092056E1
8.590086942E0,-2.139855027E-1,1.051025987E0,1.116103268E1
8.595137880E0,-2.786639929E-1,8.977140188E-1,1.115863705E1
8.600188869E0,-3.505289853E-1,7.899165154E-1,1.118019676E1
8.605249078E0,-4.271849990E-1,6.773279905E-1,1.123768902E1
8.610299963E0,-4.990499914E-1,6.246269941E-1,1.135746384E1
8.615350953E0,-5.182139874E-1,6.701415181E-1,1.150598526E1
8.620401942E0,-5.349825025E-1,6.485819817E-1,1.168804264E1
8.625452880E0,-4.750950038E-1,6.940965056E-1,1.178386307E1
8.630503869E0,-3.720884919E-1,6.940965056E-1,1.191082478E1
8.635551213E0,-2.714774907E-1,7.132604718E-1,1.193717480E1
8.640602151E0,-1.325384974E-1,6.653504968E-1,1.195873451E1
8.645653140E0,-2.474099956E-2,6.054630280E-1,1.182219124E1
8.650704078E0,1.046160012E-1,5.383890271E-1,1.158743191E1
8.655755067E0,1.597124934E-1,4.880835116E-1,1.144130611E1
8.660806005E0,1.764809936E-1,4.569419920E-1,1.130955410E1
8.665857463E0,1.333619952E-1,4.353824854E-1,1.110114574E1
8.670908401E0,8.305650204E-2,4.473600090E-1,1.098376560E1
8.675959390E0,8.784750104E-2,4.234049916E-1,1.087117767E1
8.681010328E0,5.670600012E-2,4.186140001E-1,1.078254414E1
8.686061317E0,5.670600012E-2,3.683085144E-1,1.071067905E1
8.691112255E0,-3.671849892E-2,2.724885046E-1,1.059090424E1
8.696164286E0,-1.061879992E-1,2.173919976E-1,1.052622509E1
8.701215224E0,-1.588889956E-1,2.173919976E-1,1.052383041E1
8.706266213E0,-1.804485023E-1,2.006234974E-1,1.048310661E1
8.711317151E0,-2.307540029E-1,2.126010060E-1,1.048550224E1
8.716368140E0,-1.756574959E-1,2.868615091E-1,1.045915127E1
8.721419078E0,-1.037925035E-1,3.275850117E-1,1.044477844E1
8.726478244E0,-1.036799978E-2,3.778904974E-1,1.040884590E1
8.731529182E0,2.077350020E-2,4.641284943E-1,1.028427982E1
8.736580172E0,6.628800184E-2,5.479710102E-1,1.015492344E1
8.741631109E0,6.868349761E-2,6.078584790E-1,9.989633560E0
8.746682099E0,6.149699911E-2,6.940965056E-1,9.829134941E0
8.751733036E0,3.514650092E-2,7.563794851E-1,9.599166870E0
8.756764911E0,4.004999995E-3,8.258489966E-1,9.362012863E0
8.761815849E0,-3.432299942E-2,8.785499930E-1,9.120066643E0
8.766866838E0,-1.013970003E-1,9.647880197E-1,8.916449547E0
8.771917828E0,-7.744199783E-2,1.022279978E0,8.734391212E0
8.776968765E0,-3.192749992E-2,1.082167506E0,8.581079483E0
8.782019755E0,-1.755449921E-2,1.125286460E0,8.463700294E0
8.787076786E0,2.316899970E-2,1.130077481E0,8.403812408E0
8.792127776E0,3.993749991E-2,1.127681971E0,8.353507042E0
8.797178713E0,3.514650092E-2,1.137264013E0,8.276850700E0
8.802229703E0,2.316899970E-2,1.154032469E0,8.228940964E0
8.807280640E0,-1.995000057E-2,1.170801044E0,8.140307426E0
8.812331630E0,4.004999995E-3,1.177987456E0,8.085210800E0
8.817405119E0,-3.181499895E-3,1.158823490E0,8.006159782E0
8.822456057E0,-7.972500287E-3,1.134868503E0,7.936689854E0
8.827507047E0,-3.671849892E-2,1.127681971E0,7.939085484E0
8.832558036E0,-2.713650092E-2,1.142055035E0,7.934294701E0
8.837608974E0,-3.432299942E-2,1.110913515E0,7.867220402E0
8.842659963E0,-8.462850004E-2,1.130077481E0,7.862429619E0
8.847712359E0,-1.540980041E-1,1.118100047E0,7.874406815E0
8.852763297E0,-2.044035047E-1,1.127681971E0,7.867220402E0
8.857814286E0,-2.547090054E-1,1.108518004E0,7.850451946E0
8.862865276E0,-2.666864991E-1,1.086958528E0,7.783378124E0
8.867916213E0,-3.002234995E-1,1.151636958E0,7.725885868E0
8.872967203E0,-2.858504951E-1,1.228292942E0,7.689953327E0
8.877988922E0,-2.547090054E-1,1.257038951E0,7.574969292E0
8.883039911E0,-2.379405051E-1,1.316926479E0,7.522268295E0
8.888090901E0,-2.067990005E-1,1.316926479E0,7.448008060E0
8.893141838E0,-2.283585072E-1,1.348067999E0,7.356978893E0
8.898192828E0,-2.283585072E-1,1.388791442E0,7.342606068E0
8.903243765E0,-1.780530065E-1,1.410351038E0,7.368956566E0
8.908317828E0,-1.996124983E-1,1.429515004E0,7.486336231E0
8.913368765E0,-1.900305003E-1,1.467843056E0,7.562992096E0
8.918419755E0,-1.756574959E-1,1.534916997E0,7.682766914E0
8.923470692E0,-1.708665043E-1,1.616364002E0,7.759422779E0
8.928521630E0,-1.660754979E-1,1.645110011E0,7.867220402E0
8.933572619E0,-1.517024934E-1,1.625946045E0,8.025323868E0
8.938623036E0,-1.229564995E-1,1.685833454E0,8.157075882E0
8.943673974E0,-9.900149703E-2,1.707393050E0,8.267269135E0
8.948724911E0,-3.671849892E-2,1.767280459E0,8.372671127E0
8.953775901E0,4.233299941E-2,1.851122975E0,8.463700294E0
8.958826890E0,5.431050062E-2,1.944547534E0,8.614616394E0
8.963877828E0,8.545199782E-2,2.023598909E0,8.715227127E0
8.968927255E0,1.094070002E-1,2.109837055E0,8.794279099E0
8.973978192E0,8.545199782E-2,2.196074963E0,8.880517006E0
8.979029182E0,8.066099882E-2,2.227216482E0,8.930822372E0
8.984080119E0,7.826550305E-2,2.287103891E0,8.940404892E0
8.989131109E0,3.275100142E-2,2.287103891E0,8.997896194E0
8.994182047E0,1.609500032E-3,2.323036432E0,9.031433105E0
8.999231630E0,1.598249935E-2,2.308663607E0,9.036224365E0
9.004282567E0,6.628800184E-2,2.318245411E0,9.026642799E0
9.009333557E0,7.107900083E-2,2.306267977E0,9.007478714E0
9.014384547E0,1.285710037E-1,2.272731066E0,9.029038429E0
9.019435484E0,1.692945063E-1,2.303872585E0,9.050597191E0
9.024486474E0,1.668989956E-1,2.351782560E0,9.110485077E0
9.029543192E0,1.094070002E-1,2.385319471E0,9.182350159E0
9.034594130E0,2.556449920E-2,2.363759995E0,9.244632721E0
9.039645119E0,-7.265099883E-2,2.368551016E0,9.306916237E0
9.044696109E0,-1.612845063E-1,2.337409496E0,9.366803169E0
9.049747047E0,-2.523134947E-1,2.258358002E0,9.388362885E0
9.054798036E0,-3.289695084E-1,2.167329073E0,9.395549774E0
9.059836422E0,-3.577154875E-1,2.064322472E0,9.481787682E0
9.064887359E0,-3.720884919E-1,2.009226084E0,9.534488678E0
9.069938349E0,-3.936479986E-1,1.939756513E0,9.596771240E0
9.074989286E0,-3.888570070E-1,1.920592546E0,9.678218842E0
9.080040276E0,-4.247894883E-1,1.843936443E0,9.800389290E0
9.085091213E0,-4.080210030E-1,1.800817490E0,9.872254372E0
9.090161994E0,-4.008345008E-1,1.808004022E0,9.934536934E0
9.095212932E0,-3.792749941E-1,1.731348038E0,1.001358891E1
9.100263922E0,-4.080210030E-1,1.664273977E0,1.002077484E1
9.105314911E0,-4.056254923E-1,1.585222483E0,1.008305836E1
9.110365849E0,-3.625065088E-1,1.522939444E0,1.013575935E1
9.115416838E0,-3.481335044E-1,1.458261013E0,1.016210938E1
9.120455224E0,-3.337605000E-1,1.360045552E0,1.019804192E1
9.125506265E0,-3.265739977E-1,1.266620994E0,1.032260799E1
9.130557307E0,-2.690820098E-1,1.223502040E0,1.043040562E1
9.135608349E0,-1.684709936E-1,1.211524487E0,1.059329987E1
9.140659390E0,-9.900149703E-2,1.245061517E0,1.072265625E1
9.145710432E0,-6.306900084E-2,1.237874985E0,1.095262432E1
9.150765953E0,-1.755449921E-2,1.254643559E0,1.118498802E1
9.155816994E0,-1.755449921E-2,1.259434462E0,1.138860512E1
9.160868036E0,2.077350020E-2,1.240270495E0,1.160659599E1
9.165919078E0,6.389249861E-2,1.199547052E0,1.174793053E1
9.170970119E0,9.982500225E-2,1.103726983E0,1.176949024E1
9.176021161E0,1.094070002E-1,1.019884467E0,1.172397518E1
9.181053244E0,6.149699911E-2,9.863474965E-1,1.162815571E1
9.186104286E0,-8.223299682E-2,1.017488956E0,1.140537357E1
9.191155328E0,-2.571044862E-1,1.122890949E0,1.099095249E1
9.196206369E0,-4.176029861E-1,1.240270495E0,1.051424789E1
9.201257411E0,-5.972654819E-1,1.360045552E0,1.006389427E1
9.206308453E0,-6.763169765E-1,1.417537451E0,9.718941689E0
9.211361005E0,-7.098540068E-1,1.458261013E0,9.359617233E0
9.216412047E0,-6.379889846E-1,1.623550534E0,8.995500565E0
9.221463088E0,-5.589374900E-1,1.767280459E0,8.779906273E0
9.226514130E0,-4.535354972E-1,1.920592546E0,8.717622757E0
9.231565172E0,-3.649019897E-1,2.119419098E0,8.806256294E0
9.236616213E0,-3.696930110E-1,2.301476955E0,8.966754913E0
9.241667776E0,-4.631175101E-1,2.404483557E0,9.189536095E0
9.246718817E0,-5.781015158E-1,2.426043034E0,9.448250771E0
9.251769859E0,-6.835035086E-1,2.385319471E0,9.728524208E0
9.256820901E0,-7.721369863E-1,2.239193916E0,9.934536934E0
9.261871942E0,-7.194359899E-1,2.006830454E0,1.005670738E1
9.266922984E0,-4.990499914E-1,1.791235447E0,1.014294529E1
9.272013349E0,-2.571044862E-1,1.561267495E0,1.027948856E1
9.277064390E0,-3.192749992E-2,1.316926479E0,1.051424789E1
9.282115432E0,2.363685071E-1,1.077376485E0,1.072026062E1
9.287166474E0,3.968670070E-1,8.929229975E-1,1.087357330E1
9.292217515E0,4.711275101E-1,6.988875270E-1,1.119217491E1
9.297268557E0,3.777030110E-1,5.144339800E-1,1.161857319E1
9.302295953E0,2.100179940E-1,3.515399992E-1,1.209767342E1
9.307346994E0,-7.859999896E-4,1.263629943E-1,1.256958675E1
9.312398036E0,-2.091944963E-1,-4.132200032E-2,1.289058399E1
9.317449078E0,-4.223940074E-1,-2.928495109E-1,1.319960308E1
9.322500119E0,-6.188250184E-1,-6.042644978E-1,1.332416916E1
9.327551161E0,-7.841144800E-1,-9.156795144E-1,1.330979633E1
9.332576734E0,-9.661725163E-1,-1.171998024E0,1.320439434E1
9.337627776E0,-1.145835042E0,-1.327705503E0,1.298161316E1
9.342678817E0,-1.313519955E0,-1.423525453E0,1.265582466E1
9.347729859E0,-1.450063467E0,-1.387593031E0,1.215756130E1
9.352780901E0,-1.430899501E0,-1.188766479E0,1.163055134E1
9.357831942E0,-1.332684040E0,-8.653740287E-1,1.114665985E1
9.362890640E0,-1.251237035E0,-5.994734764E-1,1.076577568E1
9.367941682E0,-1.119484544E0,-3.623189926E-1,1.026511574E1
9.372992724E0,-9.733589888E-1,-9.881400317E-2,9.685404778E0
9.378043765E0,-8.871210217E-1,1.431314945E-1,9.201514244E0
9.383094807E0,-8.559795022E-1,3.730995059E-1,8.770323753E0
9.388145849E0,-8.823300004E-1,6.270225048E-1,8.439744949E0
9.393203244E0,-9.062849879E-1,8.258489966E-1,8.116352081E0
9.398254286E0,-9.470084906E-1,1.000720501E0,7.907944202E0
9.403305328E0,-9.565904737E-1,1.149241447E0,7.883988857E0
9.408356369E0,-9.374265075E-1,1.266620994E0,7.977413654E0
9.413407411E0,-8.751435280E-1,1.357650042E0,8.125934601E0
9.418458453E0,-7.529730201E-1,1.331299543E0,8.394230843E0
9.423506005E0,-6.284070015E-1,1.242666006E0,8.688877106E0
9.428557047E0,-4.846769869E-1,1.122890949E0,9.002687454E0
9.433608088E0,-4.391624928E-1,9.935340285E-1,9.280565262E0
9.438659130E0,-3.313649893E-1,8.737589717E-1,9.544070244E0
9.443710172E0,-2.786639929E-1,7.659615278E-1,9.759665489E0
9.448761213E0,-3.122009933E-1,6.821190119E-1,9.972865105E0
9.453872724E0,-3.145965040E-1,6.078584790E-1,1.015252781E1
9.458923765E0,-3.217830062E-1,5.743215084E-1,1.027230263E1
9.463974807E0,-3.265739977E-1,5.527619720E-1,1.030583954E1
9.469025849E0,-3.145965040E-1,5.695304871E-1,1.032260799E1
9.474076890E0,-3.122009933E-1,5.958809853E-1,1.035854053E1
9.479127984E0,-3.050144911E-1,7.060739994E-1,1.031063080E1
9.484117359E0,-2.211720049E-1,8.306400180E-1,1.026990700E1
9.489168401E0,-1.828439981E-1,9.815564752E-1,1.016210938E1
9.494219442E0,-1.564934999E-1,1.084563017E0,1.005431175E1
9.499270484E0,-1.469115019E-1,1.144450545E0,9.891418457E0
9.504321526E0,-1.517024934E-1,1.211524487E0,9.757269859E0
9.509372567E0,-1.373295039E-1,1.261829972E0,9.639890671E0
9.514411474E0,-1.421204954E-1,1.283389449E0,9.486578941E0
9.519462515E0,-1.469115019E-1,1.304949045E0,9.335661888E0
9.524513557E0,-1.804485023E-1,1.350463510E0,9.177558899E0
9.529564599E0,-1.708665043E-1,1.384000540E0,9.019455910E0
9.534615640E0,-1.301430017E-1,1.376814008E0,8.897285461E0
9.539666682E0,-1.948215067E-1,1.372022986E0,8.770323753E0
9.544718505E0,-2.235675007E-1,1.407955527E0,8.664921761E0
9.549769547E0,-2.834550142E-1,1.393582463E0,8.535565376E0
9.554820588E0,-3.888570070E-1,1.434306026E0,8.401416779E0
9.559871630E0,-4.032300115E-1,1.453469992E0,8.286433220E0
9.564922672E0,-4.008345008E-1,1.527730465E0,8.204985619E0
9.569973713E0,-3.505289853E-1,1.578035951E0,8.075629234E0
9.575035640E0,-3.193874955E-1,1.628341556E0,7.989390850E0
9.580086682E0,-3.145965040E-1,1.669064999E0,7.919921398E0
9.585137724E0,-3.529244959E-1,1.697811007E0,7.826497078E0
9.590188765E0,-3.912524879E-1,1.808004022E0,7.766609669E0
9.595239807E0,-4.008345008E-1,1.899032950E0,7.752236366E0
9.600290849E0,-4.223940074E-1,2.014017105E0,7.780982494E0
9.605347359E0,-4.559310079E-1,2.061927080E0,7.816915035E0
9.610398401E0,-4.343715012E-1,2.133791924E0,7.840869904E0
9.615449442E0,-4.199984968E-1,2.181701899E0,7.893570900E0
9.620500484E0,-4.271849990E-1,2.208052397E0,7.996577263E0
9.625551526E0,-4.607219994E-1,2.222425461E0,8.078024864E0
9.630602567E0,-5.086320043E-1,2.229612112E0,8.193008423E0
9.635665797E0,-5.397735238E-1,2.210448027E0,8.310387611E0
9.640716838E0,-5.349825025E-1,2.224821091E0,8.367879868E0
9.645767880E0,-5.397735238E-1,2.208052397E0,8.382252693E0
9.650818922E0,-5.804970264E-1,2.160142422E0,8.437349319E0
9.655869963E0,-6.020565033E-1,2.164933443E0,8.468490601E0
9.660921005E0,-5.804970264E-1,2.174515486E0,8.511610031E0
9.665937359E0,-6.595485210E-1,2.205657005E0,8.626593590E0
9.670988401E0,-6.451755166E-1,2.265544415E0,8.835002899E0
9.676039442E0,-6.499664783E-1,2.339804888E0,9.019455910E0
9.681090484E0,-6.188250184E-1,2.457184553E0,9.256610870E0
9.686141578E0,-5.493555069E-1,2.541027069E0,9.505742073E0
9.691192567E0,-5.086320043E-1,2.586541414E0,9.783620834E0
9.696248817E0,-4.319759905E-1,2.620078564E0,9.915372849E0
9.701299859E0,-3.289695084E-1,2.612891912E0,1.005670738E1
9.706350901E0,-3.265739977E-1,2.663197517E0,1.018127346E1
9.711401994E0,-2.714774907E-1,2.663197517E0,1.025313854E1
9.716452984E0,-2.427314967E-1,2.615287542E0,1.021720600E1
9.721504026E0,-2.834550142E-1,2.550609112E0,1.017887783E1
9.726570849E0,-3.888570070E-1,2.538631439E0,1.013575935E1
9.731621890E0,-5.349825025E-1,2.538631439E0,1.004712582E1
9.736672932E0,-7.002720237E-1,2.512280941E0,9.944119453E0
9.741723974E0,-8.416064978E-1,2.483535051E0,9.927350044E0
9.746775015E0,-9.446129799E-1,2.430834055E0,9.948909760E0
9.751826057E0,-1.011687040E0,2.404483557E0,9.948909760E0
9.756877672E0,-1.040433049E0,2.368551016E0,9.992029190E0
9.761928713E0,-1.066783547E0,2.282313108E0,1.012617683E1
9.766979755E0,-1.021268964E0,2.184097528E0,1.025553417E1
9.772030797E0,-9.733589888E-1,2.133791924E0,1.045675564E1
9.777081838E0,-9.733589888E-1,1.999644041E0,1.063162708E1
9.782132880E0,-9.781500101E-1,1.918197036E0,1.079212570E1
9.787174807E0,-1.033246517E0,1.851122975E0,1.100053406E1
9.792225849E0,-1.100320458E0,1.769675970E0,1.119936085E1
9.797276890E0,-1.109902501E0,1.724161506E0,1.134788227E1
9.802327932E0,-1.143439531E0,1.609177470E0,1.144849300E1
9.807378974E0,-1.162603498E0,1.527730465E0,1.152035809E1
9.812430015E0,-1.176976442E0,1.400768995E0,1.158024597E1
9.817465224E0,-1.236863971E0,1.343276978E0,1.159701443E1
9.822516265E0,-1.294355989E0,1.288180470E0,1.169043827E1
9.827567307E0,-1.303938031E0,1.264225483E0,1.167127419E1
9.832618401E0,-1.315915465E0,1.276203036E0,1.165211010E1
9.837669390E0,-1.380594015E0,1.280994058E0,1.161138725E1
9.842720432E0,-1.404549003E0,1.360045552E0,1.156108189E1
9.847796161E0,-1.373407483E0,1.395977974E0,1.135985947E1
9.852847255E0,-1.212908983E0,1.453469992E0,1.105323505E1
9.857898244E0,-1.006896019E0,1.558871984E0,1.077775288E1
9.862949338E0,-8.008829951E-1,1.573245049E0,1.054778481E1
9.868000380E0,-5.781015158E-1,1.575640559E0,1.035614491E1
9.873051369E0,-4.176029861E-1,1.496588945E0,1.023637009E1
9.878088609E0,-3.481335044E-1,1.448678970E0,1.011899090E1
9.883139651E0,-3.217830062E-1,1.431910515E0,1.013815403E1
9.888190744E0,-2.571044862E-1,1.357650042E0,1.023637009E1
9.893241786E0,-2.954325080E-1,1.302553535E0,1.044717407E1
9.898292828E0,-2.666864991E-1,1.235479474E0,1.074421597E1
9.903343869E0,-2.786639929E-1,1.132472992E0,1.106281757E1
9.908413557E0,-3.074100018E-1,1.022279978E0,1.142693329E1
9.913464599E0,-2.666864991E-1,9.049004912E-1,1.175751209E1
9.918515640E0,-2.044035047E-1,7.539839745E-1,1.200185394E1
9.923566682E0,-1.445160061E-1,6.342089772E-1,1.220786667E1
9.928617724E0,-1.205610037E-1,5.072475076E-1,1.235159683E1
9.933668765E0,-1.301430017E-1,4.545465112E-1,1.242106628E1
9.938719807E0,-1.540980041E-1,4.521510005E-1,1.249293137E1
9.943770849E0,-1.732620001E-1,4.401735067E-1,1.255521393E1
9.948821942E0,-1.373295039E-1,4.258005023E-1,1.257677364E1
9.953872984E0,-1.636800021E-1,3.778904974E-1,1.246178913E1
9.958924026E0,-1.612845063E-1,3.826814890E-1,1.231087303E1
9.963975067E0,-1.133745015E-1,3.395625055E-1,1.208090496E1
9.969021422E0,-1.469115019E-1,3.180029988E-1,1.185572815E1
9.974072463E0,-1.708665043E-1,3.203985095E-1,1.151077557E1
9.979123505E0,-1.517024934E-1,2.964434922E-1,1.109156322E1
9.984174547E0,-1.636800021E-1,3.227939904E-1,1.075858879E1
9.989225588E0,-2.020079941E-1,3.587265015E-1,1.041124153E1
9.994276630E0,-2.091944963E-1,4.210095108E-1,1.010701275E1
9.999326786E0,-1.708665043E-1,4.569419920E-1,9.831530571E0
1.000437783E1,-8.702400327E-2,4.761059880E-1,9.615935326E0
1.000942887E1,1.609500032E-3,4.761059880E-1,9.510533333E0
1.001447991E1,1.261754930E-1,4.329870045E-1,9.309311867E0
1.001953100E1,1.812720001E-1,3.778904974E-1,9.223073959E0
1.002458199E1,1.908539981E-1,3.707039952E-1,9.242237091E0
1.002962444E1,1.716900021E-1,3.156074882E-1,9.280565262E0
1.003467543E1,5.670600012E-2,3.132120073E-1,9.388362885E0
1.003972653E1,-4.869600013E-2,2.916525006E-1,9.520115852E0
1.004477752E1,-1.948215067E-1,2.461380064E-1,9.627913475E0
1.004982861E1,-3.145965040E-1,2.030189931E-1,9.726128578E0
1.005487965E1,-4.463489950E-1,1.143855006E-1,9.793202400E0
1.005991830E1,-5.757060051E-1,7.126650214E-2,9.872254372E0
1.006496934E1,-6.787124872E-1,8.084850013E-2,9.920164108E0
1.007002038E1,-7.338089943E-1,9.522149712E-2,9.984842300E0
1.007507142E1,-7.553684711E-1,1.479225010E-1,1.003754330E1
1.008012246E1,-7.314134836E-1,2.485335022E-1,1.006389427E1
1.008517350E1,-6.882944703E-1,3.275850117E-1,1.005910301E1
1.009024486E1,-6.571530104E-1,4.258005023E-1,1.003514767E1
1.009529590E1,-6.116384864E-1,5.431799889E-1,9.963282585E0
1.010034694E1,-5.541465282E-1,6.485819817E-1,9.821948051E0
1.010539798E1,-4.631175101E-1,7.683569789E-1,9.613539696E0
1.011044903E1,-4.199984968E-1,8.641769886E-1,9.376385689E0
1.011550012E1,-4.008345008E-1,9.552059770E-1,9.117671967E0
1.012053252E1,-3.601109982E-1,1.029466510E0,8.851771355E0
1.012558345E1,-3.433425128E-1,1.101331472E0,8.583475113E0
1.013063439E1,-3.217830062E-1,1.149241447E0,8.382252693E0
1.013568533E1,-3.265739977E-1,1.240270495E0,8.226545334E0
1.014073621E1,-2.978279889E-1,1.362440944E0,8.044487953E0
1.014578715E1,-2.714774907E-1,1.508566499E0,7.905548573E0
1.015084512E1,-2.307540029E-1,1.609177470E0,7.713908672E0
1.015589606E1,-2.067990005E-1,1.704997540E0,7.548618793E0
1.016094699E1,-1.852394938E-1,1.843936443E0,7.368956566E0
1.016599788E1,-1.493069977E-1,1.939756513E0,7.237204075E0
1.017104882E1,-1.564934999E-1,2.021203518E0,7.076705456E0
1.017609976E1,-1.564934999E-1,2.085881948E0,6.985676289E0
1.018115538E1,-1.229564995E-1,2.198470592E0,6.904229641E0
1.018620632E1,-1.013970003E-1,2.243984938E0,6.837155342E0
1.019125726E1,-8.702400327E-2,2.296685934E0,6.784454346E0
1.019630819E1,-5.827800184E-2,2.390110493E0,6.841946602E0
1.020135908E1,-5.109149963E-2,2.375737429E0,6.863505840E0
1.020641002E1,-6.785999984E-2,2.402087927E0,6.944952965E0
1.021147184E1,-1.061879992E-1,2.447602510E0,7.057541370E0
1.021652278E1,-1.181655005E-1,2.402087927E0,7.261158943E0
1.022157366E1,-1.540980041E-1,2.354177952E0,7.498313427E0
1.022662460E1,-1.804485023E-1,2.311058998E0,7.677976131E0
1.023167554E1,-1.780530065E-1,2.318245411E0,7.850451946E0
1.023672647E1,-1.684709936E-1,2.287103891E0,7.986995697E0
1.024176908E1,-1.612845063E-1,2.248775959E0,8.075629234E0
1.024682007E1,-1.493069977E-1,2.220030069E0,8.140307426E0
1.025187095E1,-9.421049803E-2,2.179306507E0,8.209776878E0
1.025692189E1,-5.827800184E-2,2.138582945E0,8.212172508E0
1.026197283E1,-5.588249862E-2,2.109837055E0,8.257686615E0
1.026702376E1,-7.504650205E-2,2.066718102E0,8.317574501E0
1.027206376E1,-1.037925035E-1,2.025994539E0,8.303201675E0
1.027711470E1,-1.397249997E-1,2.016412497E0,8.353507042E0
1.028216564E1,-9.660600126E-2,2.028389931E0,8.413394928E0
1.028721658E1,-2.953200042E-2,2.037971973E0,8.439744949E0
1.029226746E1,3.275100142E-2,2.049949408E0,8.430163383E0
1.029731840E1,1.333619952E-1,2.081090927E0,8.470886230E0
1.030236934E1,1.932494938E-1,2.157747030E0,8.482864380E0
1.030742028E1,2.219955027E-1,2.184097528E0,8.521191597E0
1.031247121E1,2.291820049E-1,2.246380568E0,8.573892593E0
1.031752215E1,2.459505051E-1,2.318245411E0,8.605034828E0
1.032257304E1,2.148090005E-1,2.335014105E0,8.657735825E0
1.032762397E1,1.621080041E-1,2.294290543E0,8.648153305E0
1.033267752E1,1.046160012E-1,2.301476955E0,8.621803284E0
1.033772845E1,5.191500112E-2,2.337409496E0,8.693668365E0
1.034277939E1,1.358699985E-2,2.335014105E0,8.703249931E0
1.034783028E1,-8.462850004E-2,2.342200518E0,8.763137817E0
1.035288121E1,-1.948215067E-1,2.306267977E0,8.806256294E0
1.035793215E1,-2.906414866E-1,2.270335436E0,8.844584465E0
1.036296850E1,-4.391624928E-1,2.246380568E0,8.854166031E0
1.036801939E1,-5.230050087E-1,2.212843418E0,8.870935440E0
1.037307033E1,-6.140339971E-1,2.188888550E0,8.921240807E0
1.037812126E1,-6.906899810E-1,2.143373966E0,8.981127739E0
1.038317220E1,-7.817190289E-1,2.131396532E0,9.043411255E0
1.038822314E1,-8.463975191E-1,2.105046034E0,9.100902557E0
1.039330267E1,-8.583750129E-1,2.095463991E0,9.237446785E0
1.039835366E1,-8.631659746E-1,2.140978575E0,9.431482315E0
1.040340455E1,-8.392109871E-1,2.167329073E0,9.615935326E0
1.040845548E1,-8.032785058E-1,2.241589546E0,9.797993660E0
1.041350637E1,-7.002720237E-1,2.236798525E0,9.999215126E0
1.041855731E1,-6.044520140E-1,2.236798525E0,1.021960163E1
1.042358626E1,-5.301914811E-1,2.188888550E0,1.033937645E1
