"Time (s)","Gyroscope x (rad/s)","Gyroscope y (rad/s)","Gyroscope z (rad/s)"
9.261657800E-2,-3.424307704E-2,-1.923040599E-1,4.307758436E-2
9.765329700E-2,-3.637307882E-2,-2.104090601E-1,3.988258541E-2
1.027177760E-1,-2.785307914E-2,-2.689840496E-1,4.094758630E-2
1.077653280E-1,-1.294307783E-2,-3.179740310E-1,3.136258572E-2
1.128558490E-1,1.966922078E-3,-3.456640542E-1,1.325758640E-2
1.178624630E-1,1.794192195E-2,-3.552490473E-1,-1.123741362E-2
1.228994940E-1,3.498192132E-2,-3.509890437E-1,-4.105741531E-2
1.279590260E-1,4.669691995E-2,-3.339490592E-1,-7.087741047E-2
1.330034530E-1,5.095691979E-2,-2.902840376E-1,-9.750241041E-2
1.380990780E-1,4.243692011E-2,-2.263840586E-1,-1.188024133E-1
1.431363690E-1,2.752692252E-2,-1.550290585E-1,-1.294524223E-1
1.481865260E-1,4.096921999E-3,-9.219405055E-2,-1.283874214E-1
1.532373070E-1,-1.933307946E-2,-5.278905481E-2,-1.241274104E-1
1.582886610E-1,-4.169807956E-2,-3.148905188E-2,-1.113474146E-1
1.633405880E-1,-5.980307981E-2,-3.255405277E-2,-9.430741519E-2
1.683731920E-1,-6.832307577E-2,-4.533405602E-2,-7.939741015E-2
1.734427240E-1,-7.364808023E-2,-5.811405182E-2,-6.661741436E-2
1.784850670E-1,-7.151807845E-2,-6.769905239E-2,-5.490241200E-2
1.835662650E-1,-6.619308144E-2,-7.302405685E-2,-4.531741515E-2
1.886146510E-1,-6.086808071E-2,-7.302405685E-2,-3.466741368E-2
1.936697030E-1,-5.554307997E-2,-7.089405507E-2,-2.721241303E-2
1.986836090E-1,-4.489307851E-2,-7.834905386E-2,-1.762741432E-2
2.037416820E-1,-3.850308061E-2,-9.645405412E-2,-1.017241366E-2
2.087931400E-1,-3.317807987E-2,-1.156240553E-1,-9.107413702E-3
2.138371510E-1,-2.998307720E-2,-1.358590573E-1,-1.123741362E-2
2.188855880E-1,-3.104807809E-2,-1.582240611E-1,-1.975741424E-2
2.239334010E-1,-3.317807987E-2,-1.827190667E-1,-3.360241279E-2
2.289886610E-1,-3.743807971E-2,-2.008240670E-1,-4.957741499E-2
2.340692340E-1,-4.276308045E-2,-2.072140574E-1,-6.768241525E-2
2.391197550E-1,-4.276308045E-2,-1.933690608E-1,-8.152741194E-2
2.441747030E-1,-4.276308045E-2,-1.667440534E-1,-9.643741697E-2
2.492261610E-1,-4.063307866E-2,-1.230790541E-1,-1.038924158E-1
2.542756920E-1,-3.211307898E-2,-7.089405507E-2,-1.017624140E-1
2.593252760E-1,-2.252807841E-2,-2.616405487E-2,-8.898241073E-2
2.643789740E-1,-7.618078031E-3,4.720944911E-3,-7.513741404E-2
2.694275150E-1,6.226921920E-3,7.915944792E-3,-5.490241200E-2
2.745328800E-1,2.007192373E-2,-4.864055198E-3,-3.466741368E-2
2.795732970E-1,2.752692252E-2,-2.616405487E-2,-1.123741362E-2
2.845523070E-1,2.859192342E-2,-4.959405214E-2,7.932586595E-3
2.896026190E-1,2.539692074E-2,-7.302405685E-2,1.538758632E-2
2.946500670E-1,1.474692207E-2,-9.964905679E-2,1.751758531E-2
2.997160050E-1,-5.488078110E-3,-1.252090633E-1,1.432258636E-2
3.047566300E-1,-2.891807631E-2,-1.497040540E-1,4.737586249E-3
3.098068900E-1,-5.447807908E-2,-1.699390560E-1,-1.336741354E-2
3.148799630E-1,-8.003807813E-2,-1.805890650E-1,-3.466741368E-2
3.199202760E-1,-1.045330763E-1,-1.837840676E-1,-5.703241378E-2
3.249586090E-1,-1.290280819E-1,-1.763290614E-1,-7.513741404E-2
3.300384530E-1,-1.460680813E-1,-1.731340587E-1,-8.791741729E-2
3.350753280E-1,-1.556530744E-1,-1.646140665E-1,-9.643741697E-2
3.401108490E-1,-1.513930857E-1,-1.465090662E-1,-9.856741130E-2
3.451744420E-1,-1.364830732E-1,-1.230790541E-1,-9.643741697E-2
3.502094940E-1,-1.109230816E-1,-9.964905679E-2,-9.111241251E-2
3.552832440E-1,-7.684307545E-2,-8.260904998E-2,-8.791741729E-2
3.603417340E-1,-4.702308029E-2,-7.621905208E-2,-8.365741372E-2
3.653812650E-1,-2.039807662E-2,-7.621905208E-2,-7.513741404E-2
3.704408490E-1,3.031922039E-3,-8.580405265E-2,-6.448741257E-2
3.754883490E-1,1.581192203E-2,-1.071040556E-1,-4.957741499E-2
3.805419940E-1,1.687692106E-2,-1.315990537E-1,-3.786241263E-2
3.855944940E-1,8.356922306E-3,-1.667440534E-1,-2.934241295E-2
3.906440260E-1,-9.748077951E-3,-1.986940652E-1,-2.721241303E-2
3.956947030E-1,-3.317807987E-2,-2.285140604E-1,-2.827741392E-2
4.007638690E-1,-5.554307997E-2,-2.689840496E-1,-3.679741547E-2
4.058068900E-1,-7.577808201E-2,-3.169090450E-1,-4.531741515E-2
4.108570470E-1,-9.175308049E-2,-3.722890317E-1,-5.490241200E-2
4.159147550E-1,-1.013380811E-1,-4.223440588E-1,-6.342241168E-2
4.209562650E-1,-1.024030820E-1,-4.553590417E-1,-6.981241703E-2
4.260049630E-1,-9.601307660E-2,-4.638790488E-1,-7.726741582E-2
4.310713690E-1,-7.790807635E-2,-4.447090328E-1,-8.578741550E-2
4.361229840E-1,-5.767307803E-2,-4.021090567E-1,-9.537241608E-2
4.411709530E-1,-3.956807777E-2,-3.339490592E-1,-1.038924158E-1
4.462174630E-1,-1.933307946E-2,-2.540740371E-1,-1.102824137E-1
4.512618900E-1,-6.553078070E-3,-1.773940623E-1,-1.102824137E-1
4.564106400E-1,-6.553078070E-3,-1.113640517E-1,-1.038924158E-1
4.614135050E-1,-1.187807787E-2,-5.065905303E-2,-9.324241430E-2
4.663902240E-1,-1.507307868E-2,2.495594509E-2,-7.407241315E-2
4.714607440E-1,-1.826807857E-2,1.154809445E-1,-4.425241426E-2
4.765156400E-1,-7.618078031E-3,2.092009336E-1,-1.017241366E-2
4.815732440E-1,1.155192219E-2,2.826859653E-1,2.497258596E-2
4.866199110E-1,4.243692011E-2,3.327409625E-1,4.946758598E-2
4.916702760E-1,8.184192330E-2,3.668209612E-1,7.076758891E-2
4.967217860E-1,1.265719235E-1,3.934459686E-1,8.354758471E-2
5.017814740E-1,1.659769267E-1,4.051609635E-1,9.206758440E-2
5.068148070E-1,2.021869272E-1,4.232659638E-1,9.206758440E-2
5.119200150E-1,2.245519161E-1,4.488259554E-1,9.206758440E-2
5.169324630E-1,2.394619137E-1,4.743859470E-1,9.526258707E-2
5.219692340E-1,2.394619137E-1,4.978159666E-1,9.526258707E-2
5.270240260E-1,2.309419215E-1,5.116609335E-1,9.100258350E-2
5.320836090E-1,2.170969248E-1,5.127259493E-1,8.461258560E-2
5.371214220E-1,2.021869272E-1,5.180509686E-1,7.715758681E-2
5.421829840E-1,1.883419156E-1,5.372209549E-1,6.757258624E-2
5.472292860E-1,1.787569225E-1,5.638459325E-1,5.692258477E-2
5.522750670E-1,1.766269207E-1,5.883409381E-1,4.840258509E-2
5.573294420E-1,1.798219234E-1,6.053809524E-1,4.414258525E-2
5.623849630E-1,1.830169261E-1,6.160309315E-1,4.414258525E-2
5.674383490E-1,1.926019192E-1,6.202909350E-1,5.266258493E-2
5.724819420E-1,2.000569254E-1,6.202909350E-1,5.905258656E-2
5.775400150E-1,2.021869272E-1,6.075109839E-1,6.970258802E-2
5.825857440E-1,2.021869272E-1,5.904709697E-1,8.141758293E-2
5.876377760E-1,2.011219263E-1,5.713009834E-1,9.206758440E-2
5.926997030E-1,2.043169141E-1,5.500009656E-1,9.952258319E-2
5.977175670E-1,2.149669230E-1,5.244409442E-1,1.037825868E-1
6.027635570E-1,2.341369241E-1,5.095309615E-1,1.080425829E-1
6.078183490E-1,2.586319149E-1,5.074009299E-1,1.091075838E-1
6.128737130E-1,2.841919065E-1,4.988809526E-1,1.123025864E-1
6.179179320E-1,3.108169138E-1,4.978159666E-1,1.048475876E-1
6.229694420E-1,3.374419212E-1,5.010109544E-1,9.100258350E-2
6.280193380E-1,3.630019128E-1,4.999459684E-1,8.567758650E-2
6.330710570E-1,3.917569220E-1,5.042059422E-1,7.715758681E-2
6.381467860E-1,4.194469154E-1,5.020759106E-1,6.544258446E-2
6.431661090E-1,4.407469332E-1,4.914259613E-1,5.479258671E-2
6.482336610E-1,4.535269141E-1,4.839709401E-1,3.881758451E-2
6.532509010E-1,4.524619281E-1,4.797109663E-1,2.390758693E-2
6.583400150E-1,4.354219139E-1,4.850359559E-1,2.284258604E-2
6.633894940E-1,4.098619223E-1,4.999459684E-1,2.603758685E-2
6.684138690E-1,3.182719350E-1,5.510659814E-1,3.455758467E-2
6.734919420E-1,6.480192393E-2,6.075109839E-1,6.224758551E-2
6.785068380E-1,-2.120980769E-1,5.169859529E-1,1.059125885E-1
6.835939220E-1,-3.633280694E-1,3.263509572E-1,1.325375736E-1
6.886386610E-1,-4.187080860E-1,1.719259322E-1,1.304075718E-1
6.936938690E-1,-4.272280931E-1,9.311594814E-2,1.165625826E-1
6.987372550E-1,-3.931480646E-1,8.246594667E-2,8.567758650E-2
7.037919420E-1,-3.164680898E-1,9.737594426E-2,3.349258751E-2
7.088279840E-1,-2.067730725E-1,1.090909466E-1,-2.934241295E-2
7.138922030E-1,-8.749307692E-2,9.205094725E-2,-8.365741372E-2
7.189681400E-1,1.794192195E-2,3.986594826E-2,-1.230624169E-1
7.240165260E-1,1.095319241E-1,-4.746405780E-2,-1.390374154E-1
7.290636610E-1,1.862119138E-1,-1.497040540E-1,-1.262574196E-1
7.340862650E-1,2.426569164E-1,-2.562040389E-1,-9.324241430E-2
7.391394420E-1,2.756719291E-1,-3.680290580E-1,-5.383741483E-2
7.441955880E-1,2.852569222E-1,-4.755940437E-1,-9.107413702E-3
7.492419420E-1,2.650219202E-1,-5.799640417E-1,3.242758662E-2
7.542902760E-1,2.032519281E-1,-6.811390519E-1,6.544258446E-2
7.593426720E-1,1.042069197E-1,-7.695340514E-1,8.674258739E-2
7.644204320E-1,-2.146307752E-2,-8.515390754E-1,9.419758618E-2
7.694420470E-1,-1.588480771E-1,-9.186340570E-1,9.206758440E-2
7.744979320E-1,-2.962330878E-1,-9.708190560E-1,8.035258949E-2
8.671622550E-1,-2.408530861E-1,-5.181940198E-1,-1.379724145E-1
8.722268380E-1,-2.142280787E-1,-5.224540234E-1,-1.432974190E-1
8.772773070E-1,-1.705630720E-1,-5.288440585E-1,-1.401024163E-1
8.823161610E-1,-1.226380765E-1,-5.458840728E-1,-1.347774267E-1
8.873981400E-1,-9.388308227E-2,-5.597290397E-1,-1.209324151E-1
8.924517340E-1,-8.003807813E-2,-5.746390224E-1,-9.963241220E-2
8.974895990E-1,-8.110307902E-2,-5.895490646E-1,-7.300741225E-2
9.025068900E-1,-9.388308227E-2,-6.087190509E-1,-4.638241231E-2
9.075648590E-1,-1.194430813E-1,-6.364090443E-1,-1.549741346E-2
9.126420470E-1,-1.545880735E-1,-6.694240570E-1,1.112758648E-2
9.177026190E-1,-1.961230785E-1,-6.981790662E-1,3.242758662E-2
9.227155360E-1,-2.397880852E-1,-7.248040438E-1,5.159758776E-2
9.278089740E-1,-2.759980857E-1,-7.471690178E-1,7.076758891E-2
9.328557970E-1,-3.058180809E-1,-7.578190565E-1,8.461258560E-2
9.378986090E-1,-3.292480707E-1,-7.492990494E-1,9.739258885E-2
9.429544940E-1,-3.335080743E-1,-7.194790244E-1,1.005875841E-1
9.479751720E-1,-3.271180689E-1,-6.694240570E-1,8.780758828E-2
9.530589220E-1,-3.090130687E-1,-6.087190509E-1,6.544258446E-2
9.580656920E-1,-2.770630717E-1,-5.448190570E-1,3.668758646E-2
9.631244940E-1,-2.419180721E-1,-4.851790369E-1,2.607585862E-3
9.681834010E-1,-2.099680752E-1,-4.234090447E-1,-3.786241263E-2
9.732343380E-1,-1.876030862E-1,-3.733540475E-1,-7.726741582E-2
9.782775670E-1,-1.748230755E-1,-3.392740488E-1,-1.028274149E-1
9.833504840E-1,-1.684330851E-1,-3.169090450E-1,-1.145424172E-1
9.883873070E-1,-1.694980860E-1,-3.094540536E-1,-1.081524119E-1
9.934634530E-1,-1.748230755E-1,-3.264940381E-1,-8.578741550E-2
9.985055360E-1,-1.844080836E-1,-3.627040386E-1,-6.022741273E-2
1.003560276E0,-1.907980740E-1,-3.999790549E-1,-3.466741368E-2
1.008610536E0,-1.950580776E-1,-4.223440588E-1,-1.230241358E-2
1.013648349E0,-1.971880794E-1,-4.351240396E-1,4.737586249E-3
1.018708609E0,-1.939930767E-1,-4.361890554E-1,2.177758701E-2
1.023753974E0,-1.897330731E-1,-4.489690363E-1,3.668758646E-2
1.028795640E0,-1.897330731E-1,-4.755940437E-1,4.414258525E-2
1.033867411E0,-2.057080716E-1,-5.000890493E-1,3.562258556E-2
1.038901109E0,-2.376580834E-1,-5.181940198E-1,1.751758531E-2
1.043951474E0,-2.781280875E-1,-5.149990320E-1,-1.652413979E-3
1.048988192E0,-3.303130865E-1,-4.936990440E-1,-1.549741346E-2
1.054038140E0,-3.878230751E-1,-4.532290399E-1,-2.188741416E-2
1.059119286E0,-4.442680776E-1,-3.935890496E-1,-1.656241342E-2
1.064148349E0,-5.028430820E-1,-3.169090450E-1,-6.977413781E-3
1.069210484E0,-5.560930967E-1,-2.221240550E-1,4.737586249E-3
1.074274130E0,-5.976280570E-1,-1.465090662E-1,1.538758632E-2
1.079313817E0,-6.242530942E-1,-1.198840514E-1,2.284258604E-2
1.084366526E0,-6.295780540E-1,-1.305340677E-1,2.603758685E-2
1.089416317E0,-6.178630590E-1,-1.560940593E-1,2.390758693E-2
1.094469547E0,-5.859130621E-1,-1.763290614E-1,1.112758648E-2
1.099533349E0,-5.358580947E-1,-1.901740581E-1,-6.977413781E-3
1.104582411E0,-4.730230868E-1,-2.082790583E-1,-2.934241295E-2
1.109630953E0,-4.069930911E-1,-2.359690666E-1,-5.490241200E-2
1.114683713E0,-3.462880850E-1,-2.700490355E-1,-8.472241461E-2
1.119729234E0,-2.994280756E-1,-3.094540536E-1,-1.081524119E-1
1.124784755E0,-2.632180750E-1,-3.360790312E-1,-1.230624169E-1
1.129834338E0,-2.355280817E-1,-3.339490592E-1,-1.337124258E-1
1.134894963E0,-2.131630778E-1,-3.030640483E-1,-1.347774267E-1
1.139939390E0,-1.939930767E-1,-2.583340406E-1,-1.294524223E-1
1.144994911E0,-1.758880764E-1,-2.136040628E-1,-1.188024133E-1
1.150049026E0,-1.620430797E-1,-1.720690578E-1,-9.856741130E-2
1.155097255E0,-1.492630839E-1,-1.358590573E-1,-7.726741582E-2
1.160143765E0,-1.332880855E-1,-9.219405055E-2,-6.129241362E-2
1.165193817E0,-1.109230816E-1,-4.746405780E-2,-4.318741336E-2
1.170253401E0,-7.364808023E-2,3.655944951E-3,-2.614741400E-2
1.175300588E0,-2.572307736E-2,5.158094317E-2,-6.977413781E-3
1.180331265E0,3.072192147E-2,9.844094515E-2,4.737586249E-3
1.185400640E0,8.929692209E-2,1.335859448E-1,8.997586556E-3
1.190416682E0,1.457419246E-1,1.580809355E-1,4.775859998E-4
1.195465432E0,1.968619227E-1,1.697959453E-1,-1.869241334E-2
1.200517932E0,2.447869182E-1,1.708609462E-1,-3.999241441E-2
1.205579807E0,2.788669169E-1,1.729909331E-1,-6.129241362E-2
1.210712567E0,2.991019189E-1,1.697959453E-1,-7.726741582E-2
1.215682724E0,3.022969067E-1,1.697959453E-1,-8.259241283E-2
1.220731942E0,2.927119136E-1,1.687309444E-1,-8.046241105E-2
1.225775328E0,2.714119256E-1,1.666009426E-1,-7.087741047E-2
1.230829963E0,2.405269146E-1,1.623409390E-1,-5.277241394E-2
1.235910224E0,2.043169141E-1,1.538209468E-1,-3.360241279E-2
1.240964234E0,1.659769267E-1,1.389109343E-1,-1.762741432E-2
1.246022672E0,1.308319271E-1,1.208059490E-1,-6.977413781E-3
1.251050849E0,9.888192266E-2,1.027009487E-1,-2.717413940E-3
1.256094703E0,7.332192361E-2,8.140094578E-2,4.775859998E-4
1.261150744E0,5.947691947E-2,6.010094285E-2,-5.874139606E-4
1.266211734E0,4.776192084E-2,4.945094138E-2,-5.874139606E-4
1.271251161E0,4.882692173E-2,4.838594794E-2,-5.874139606E-4
1.276311994E0,5.734692141E-2,6.542594731E-2,-2.717413940E-3
1.281358661E0,7.225692272E-2,9.418094903E-2,-3.782414133E-3
1.286407828E0,9.249192476E-2,1.367809325E-1,-3.782414133E-3
1.291461734E0,1.137919202E-1,1.857709438E-1,1.542586018E-3
1.296538505E0,1.393519193E-1,2.326309383E-1,6.867586169E-3
1.301567619E0,1.585219204E-1,2.613859475E-1,8.997586556E-3
1.306617203E0,1.734319180E-1,2.709709406E-1,4.737586249E-3
1.311668192E0,1.808869243E-1,2.677759528E-1,-5.874139606E-4
1.316719599E0,1.819519252E-1,2.518009543E-1,-9.107413702E-3
1.321766890E0,1.787569225E-1,2.251759320E-1,-1.762741432E-2
1.326820328E0,1.691719145E-1,1.857709438E-1,-2.188741416E-2
1.331876369E0,1.542619169E-1,1.410409361E-1,-2.508241311E-2
1.336927880E0,1.361569166E-1,8.992094547E-2,-2.508241311E-2
1.341981942E0,1.169869229E-1,3.880094737E-2,-2.508241311E-2
1.347043088E0,9.355691820E-2,-1.125405543E-2,-2.508241311E-2
1.352111630E0,7.438692451E-2,-4.746405780E-2,-2.188741416E-2
1.357114026E0,5.734692141E-2,-7.195905596E-2,-1.762741432E-2
1.362163713E0,3.817692026E-2,-8.686905354E-2,-1.975741424E-2
1.367215172E0,1.261692215E-2,-9.645405412E-2,-2.401741408E-2
1.372250640E0,-1.613807678E-2,-9.538905323E-2,-3.466741368E-2
1.377317203E0,-4.702308029E-2,-7.941405475E-2,-4.425241426E-2
1.382355432E0,-7.684307545E-2,-5.704905838E-2,-5.490241200E-2
1.387444390E0,-1.055980772E-1,-3.468405455E-2,-6.235741451E-2
1.392461526E0,-1.311580837E-1,-1.231905539E-2,-6.235741451E-2
1.397516578E0,-1.524580717E-1,8.980944753E-3,-6.022741273E-2
1.402571005E0,-1.684330851E-1,2.602094412E-2,-6.129241362E-2
1.407643713E0,-1.737580746E-1,4.625594616E-2,-5.916241556E-2
1.412753088E0,-1.758880764E-1,6.010094285E-2,-5.809741467E-2
1.417725015E0,-1.694980860E-1,5.797094852E-2,-6.129241362E-2
1.422772359E0,-1.556530744E-1,4.625594616E-2,-5.809741467E-2
1.427843349E0,-1.322230846E-1,3.241094574E-2,-4.957741499E-2
1.432889234E0,-9.281808138E-2,1.537094545E-2,-3.573241457E-2
1.437946369E0,-5.021807924E-2,-5.929054692E-3,-2.827741392E-2
1.442992099E0,-1.294307783E-2,-3.255405277E-2,-2.614741400E-2
1.448040119E0,2.113692090E-2,-6.130905449E-2,-3.147241473E-2
1.453096942E0,4.669691995E-2,-8.686905354E-2,-3.573241457E-2
1.458135067E0,6.480192393E-2,-1.049740538E-1,-4.425241426E-2
1.463190067E0,7.545191795E-2,-1.177540496E-1,-5.277241394E-2
1.468240536E0,7.225692272E-2,-1.198840514E-1,-5.809741467E-2
1.473314286E0,6.480192393E-2,-1.209490523E-1,-6.555241346E-2
1.478366057E0,4.776192084E-2,-1.177540496E-1,-7.194241136E-2
1.483409390E0,2.433192357E-2,-1.166890562E-1,-7.087741047E-2
1.488462203E0,-2.293077996E-3,-1.198840514E-1,-6.235741451E-2
1.493501057E0,-2.465807647E-2,-1.198840514E-1,-4.425241426E-2
1.498583349E0,-4.702308029E-2,-1.124290526E-1,-2.401741408E-2
1.503622567E0,-6.619308144E-2,-1.007140502E-1,-6.977413781E-3
1.508676786E0,-8.323308080E-2,-8.899905533E-2,7.932586595E-3
1.513715328E0,-8.429808170E-2,-7.515405118E-2,2.284258604E-2
1.518747307E0,-7.577808201E-2,-6.024405360E-2,3.668758646E-2
1.523797463E0,-6.193307787E-2,-6.024405360E-2,4.414258525E-2
1.528880849E0,-3.956807777E-2,-6.556905061E-2,4.627258703E-2
1.533897307E0,-1.720307767E-2,-6.876405329E-2,3.881758451E-2
1.538938244E0,7.291921880E-3,-8.154405653E-2,2.390758693E-2
1.544062828E0,2.539692074E-2,-8.686905354E-2,4.775859998E-4
1.549059390E0,3.924192116E-2,-9.538905323E-2,-2.401741408E-2
1.554095224E0,4.882692173E-2,-1.007140502E-1,-4.212241247E-2
1.559134390E0,5.202192068E-2,-1.028440520E-1,-5.490241200E-2
1.564191213E0,5.415192246E-2,-1.007140502E-1,-6.235741451E-2
1.569224182E0,5.095691979E-2,-8.473905176E-2,-6.555241346E-2
1.574300015E0,4.456692189E-2,-7.089405507E-2,-6.768241525E-2
1.579340640E0,3.178692237E-2,-6.556905061E-2,-6.874741614E-2
1.584401057E0,9.421922266E-3,-6.876405329E-2,-7.087741047E-2
1.589468557E0,-2.146307752E-2,-7.728405297E-2,-8.046241105E-2
1.594490744E0,-5.447807908E-2,-8.367405087E-2,-8.578741550E-2
1.599563661E0,-8.110307902E-2,-8.047905564E-2,-8.578741550E-2
1.604589599E0,-1.055980772E-1,-6.237405539E-2,-8.152741194E-2
1.609678869E0,-1.247680783E-1,-3.042405657E-2,-7.620241493E-2
1.614713661E0,-1.375480741E-1,8.980944753E-3,-6.448741257E-2
1.619764651E0,-1.481980830E-1,3.986594826E-2,-4.531741515E-2
1.624817515E0,-1.513930857E-1,5.797094852E-2,-2.295241319E-2
1.629882463E0,-1.460680813E-1,5.797094852E-2,-6.977413781E-3
1.634930797E0,-1.332880855E-1,4.838594794E-2,5.802586209E-3
1.639982880E0,-1.141180769E-1,2.921594493E-2,1.858258620E-2
1.645034234E0,-9.601307660E-2,7.915944792E-3,2.497258596E-2
1.650055276E0,-7.258307934E-2,-1.669054851E-3,3.136258572E-2
1.655134130E0,-4.595807940E-2,-1.125405543E-2,3.775258735E-2
1.660188974E0,-1.720307767E-2,-1.125405543E-2,3.988258541E-2
1.665232099E0,1.048692223E-2,-9.124054573E-3,3.668758646E-2
1.670275276E0,3.072192147E-2,-9.124054573E-3,3.775258735E-2
1.675339338E0,4.563192278E-2,-5.929054692E-3,3.349258751E-2
1.680381682E0,5.095691979E-2,-5.929054692E-3,3.136258572E-2
1.685437724E0,5.521691963E-2,-1.551405527E-2,3.775258735E-2
1.690464182E0,5.202192068E-2,-2.403405495E-2,4.201258719E-2
1.695543765E0,4.137192294E-2,-3.574905545E-2,4.840258509E-2
1.700586838E0,2.646192163E-2,-4.000905156E-2,5.372758582E-2
1.705642463E0,1.581192203E-2,-4.639905691E-2,6.224758551E-2
1.710685901E0,1.155192219E-2,-5.065905303E-2,6.757258624E-2
1.715737619E0,1.900692284E-2,-5.491905659E-2,7.396258414E-2
1.720782619E0,2.965692058E-2,-5.704905838E-2,7.183258981E-2
1.725832880E0,4.776192084E-2,-6.024405360E-2,6.650758535E-2
1.730879078E0,6.906192005E-2,-7.089405507E-2,5.266258493E-2
1.735937203E0,9.568691999E-2,-7.515405118E-2,3.562258556E-2
1.740966422E0,1.169869229E-1,-8.260904998E-2,1.964758709E-2
1.746097776E0,1.276369244E-1,-1.017790511E-1,1.542586018E-3
1.751089390E0,1.276369244E-1,-1.230790541E-1,-9.107413702E-3
1.756132463E0,1.233769208E-1,-1.411840618E-1,-1.549741346E-2
1.761171734E0,1.105969176E-1,-1.528990567E-1,-1.123741362E-2
1.766222099E0,9.355691820E-2,-1.582240611E-1,-2.717413940E-3
1.771289130E0,7.438692451E-2,-1.518340558E-1,1.538758632E-2
1.776336578E0,5.415192246E-2,-1.433140635E-1,3.455758467E-2
1.781378192E0,3.285191953E-2,-1.326640546E-1,5.798758566E-2
1.786462255E0,1.581192203E-2,-1.326640546E-1,7.822258770E-2
1.791529755E0,4.096921999E-3,-1.401190609E-1,9.845758975E-2
1.796577567E0,-1.630779589E-4,-1.454440653E-1,1.123025864E-1
1.801622880E0,-2.293077996E-3,-1.582240611E-1,1.197575852E-1
1.806676890E0,-2.293077996E-3,-1.699390560E-1,1.240175888E-1
1.811726526E0,3.031922039E-3,-1.710040569E-1,1.240175888E-1
1.816771265E0,8.356922306E-3,-1.678090543E-1,1.218875870E-1
1.821828349E0,1.368192211E-2,-1.614190638E-1,1.154975891E-1
1.826878557E0,2.007192373E-2,-1.582240611E-1,1.048475876E-1
1.831937880E0,2.965692058E-2,-1.571590602E-1,9.952258319E-2
1.836998557E0,3.604692221E-2,-1.560940593E-1,8.887258917E-2
1.842041005E0,4.350192100E-2,-1.486390680E-1,7.076758891E-2
1.847091317E0,5.095691979E-2,-1.305340677E-1,5.159758776E-2
1.852144911E0,5.308692157E-2,-1.028440520E-1,3.881758451E-2
1.857198505E0,4.563192278E-2,-6.982905418E-2,2.923258580E-2
1.862252151E0,3.817692026E-2,-3.681405634E-2,2.071258612E-2
1.867305744E0,2.326692268E-2,-9.124054573E-3,2.497258596E-2
1.872359338E0,8.356922306E-3,7.915944792E-3,2.923258580E-2
1.877368036E0,-8.683077991E-3,1.430594455E-2,3.668758646E-2
1.882421630E0,-2.359307930E-2,1.750094444E-2,4.520758614E-2
1.887475276E0,-3.850308061E-2,1.111094467E-2,5.266258493E-2
1.892528869E0,-4.808807746E-2,-3.799055237E-3,6.331258267E-2
1.897582463E0,-5.234807730E-2,-2.509905584E-2,7.183258981E-2
1.902636057E0,-5.021807924E-2,-4.426905513E-2,7.715758681E-2
1.907670432E0,-4.382807761E-2,-6.024405360E-2,8.354758471E-2
1.912724026E0,-2.891807631E-2,-7.195905596E-2,8.887258917E-2
1.917777619E0,-1.507307868E-2,-8.686905354E-2,9.632758796E-2
1.922831265E0,-5.488078110E-3,-9.964905679E-2,9.419758618E-2
1.927884859E0,-1.228077803E-3,-1.134940535E-1,8.674258739E-2
1.932938453E0,3.031922039E-3,-1.315990537E-1,7.396258414E-2
1.937976578E0,5.161922425E-3,-1.358590573E-1,5.266258493E-2
1.943030172E0,9.421922266E-3,-1.252090633E-1,2.816758677E-2
1.948083765E0,8.356922306E-3,-9.645405412E-2,3.672586055E-3
1.953137411E0,1.966922078E-3,-5.065905303E-2,-1.762741432E-2
1.958191005E0,-7.618078031E-3,-5.929054692E-3,-3.360241279E-2
1.963244651E0,-1.933307946E-2,3.134594485E-2,-4.105741531E-2
1.968290588E0,-2.785307914E-2,5.690594763E-2,-4.105741531E-2
1.973344182E0,-3.743807971E-2,6.968594342E-2,-3.147241473E-2
1.978397776E0,-4.063307866E-2,7.288094610E-2,-1.656241342E-2
1.983451422E0,-3.530807793E-2,7.501094788E-2,-1.652413979E-3
1.988505015E0,-2.465807647E-2,7.075094432E-2,1.112758648E-2
1.993558609E0,-9.748077951E-3,6.542594731E-2,2.390758693E-2
1.998604182E0,7.291921880E-3,6.116594374E-2,3.242758662E-2
2.003657776E0,2.113692090E-2,5.797094852E-2,3.242758662E-2
2.008711369E0,3.178692237E-2,4.838594794E-2,2.390758693E-2
2.013765015E0,3.391692042E-2,4.519094527E-2,8.997586556E-3
2.018818609E0,3.072192147E-2,3.560594469E-2,4.775859998E-4
2.023872203E0,2.326692268E-2,2.495594509E-2,-8.042413741E-3
2.028901474E0,1.687692106E-2,2.921594493E-2,-6.977413781E-3
2.033955067E0,1.048692223E-2,3.667094558E-2,-8.042413741E-3
2.039008661E0,3.031922039E-3,4.199594259E-2,-8.042413741E-3
2.044062307E0,-6.553078070E-3,5.903594196E-2,-1.123741362E-2
2.049115901E0,-1.081307791E-2,7.394594699E-2,-1.443241350E-2
2.054169494E0,-1.507307868E-2,8.459594846E-2,-1.443241350E-2
2.059233922E0,-1.187807787E-2,8.885594457E-2,-9.107413702E-3
2.064287515E0,-5.488078110E-3,8.353094757E-2,2.607585862E-3
2.069341161E0,3.031922039E-3,7.394594699E-2,1.432258636E-2
2.074394755E0,7.291921880E-3,6.223094463E-2,1.751758531E-2
2.079448349E0,9.421922266E-3,4.732094705E-2,1.751758531E-2
2.084501942E0,5.161922425E-3,2.921594493E-2,1.219258644E-2
2.089488974E0,-4.423077684E-3,1.217594463E-2,1.542586018E-3
2.094542567E0,-1.400807779E-2,4.609450698E-4,-2.717413940E-3
2.099596161E0,-2.678807825E-2,-3.799055237E-3,-6.977413781E-3
2.104649807E0,-4.489307851E-2,-5.929054692E-3,-1.336741354E-2
2.109703401E0,-6.512808055E-2,-5.929054692E-3,-2.188741416E-2
2.114756994E0,-8.855807781E-2,-4.864055198E-3,-2.934241295E-2
2.119817776E0,-1.141180769E-1,-1.444905438E-2,-2.721241303E-2
2.124871369E0,-1.364830732E-1,-1.551405527E-2,-2.295241319E-2
2.129924963E0,-1.556530744E-1,-1.657905430E-2,-1.443241350E-2
2.134978609E0,-1.748230755E-1,-1.870905422E-2,-4.847413860E-3
2.140032203E0,-1.822780818E-1,-2.190405503E-2,1.542586018E-3
2.145085797E0,-1.833430827E-1,-1.338405535E-2,7.932586595E-3
2.150141161E0,-1.748230755E-1,-8.059054613E-3,1.006258652E-2
2.155194755E0,-1.567180753E-1,-4.864055198E-3,1.538758632E-2
2.160248349E0,-1.290280819E-1,5.785944872E-3,2.284258604E-2
2.165301994E0,-9.388308227E-2,1.004594564E-2,2.923258580E-2
2.170355588E0,-5.447807908E-2,2.176094428E-2,3.349258751E-2
2.175409182E0,-1.720307767E-2,3.454094380E-2,3.136258572E-2
2.180461057E0,9.421922266E-3,4.838594794E-2,2.390758693E-2
2.185514651E0,2.859192342E-2,5.477594584E-2,1.538758632E-2
2.190568244E0,3.498192132E-2,6.223094463E-2,6.867586169E-3
2.195621890E0,3.285191953E-2,6.116594374E-2,4.775859998E-4
2.200675484E0,2.326692268E-2,5.477594584E-2,-2.717413940E-3
2.205729078E0,3.031922039E-3,5.264594406E-2,-4.847413860E-3
2.210747359E0,-2.359307930E-2,4.199594259E-2,-1.652413979E-3
2.215800953E0,-5.554307997E-2,2.069594525E-2,4.775859998E-4
2.220854547E0,-8.429808170E-2,4.609450698E-4,5.802586209E-3
2.225908192E0,-1.098580807E-1,-2.296905592E-2,1.112758648E-2
2.230961786E0,-1.311580837E-1,-5.278905481E-2,1.751758531E-2
2.236015380E0,-1.439380795E-1,-7.621905208E-2,1.964758709E-2
2.241063088E0,-1.503280848E-1,-9.112904966E-2,2.177758701E-2
2.246116682E0,-1.492630839E-1,-9.006405622E-2,1.751758531E-2
2.251170328E0,-1.418080777E-1,-7.195905596E-2,8.997586556E-3
2.256223922E0,-1.354180723E-1,-3.894405812E-2,-5.912413821E-3
2.261277515E0,-1.311580837E-1,-1.669054851E-3,-1.869241334E-2
2.266331109E0,-1.290280819E-1,3.134594485E-2,-2.827741392E-2
2.271356734E0,-1.258330792E-1,6.116594374E-2,-2.934241295E-2
2.276410328E0,-1.205080822E-1,8.033594489E-2,-2.401741408E-2
2.281463922E0,-1.151830778E-1,9.311594814E-2,-1.549741346E-2
2.286517567E0,-1.109230816E-1,1.005709469E-1,-6.977413781E-3
2.291571161E0,-1.087930799E-1,1.005709469E-1,-5.874139606E-4
2.296624755E0,-1.087930799E-1,8.992094547E-2,1.006258652E-2
2.301661682E0,-1.002730802E-1,6.968594342E-2,1.432258636E-2
2.306715276E0,-9.068807960E-2,5.158094317E-2,2.071258612E-2
2.311768869E0,-7.364808023E-2,3.347594291E-2,2.497258596E-2
2.316822515E0,-5.447807908E-2,2.495594509E-2,2.390758693E-2
2.321876109E0,-3.424307704E-2,1.643594541E-2,2.177758701E-2
2.326929703E0,-1.613807678E-2,5.785944872E-3,1.645258628E-2
2.331959078E0,1.966922078E-3,3.655944951E-3,7.932586595E-3
2.337012672E0,1.687692106E-2,8.980944753E-3,-5.874139606E-4
2.342066265E0,2.326692268E-2,1.963094436E-2,-9.107413702E-3
2.347119911E0,2.326692268E-2,2.495594509E-2,-1.549741346E-2
2.352173505E0,1.794192195E-2,2.815094590E-2,-2.188741416E-2
2.357227099E0,6.226921920E-3,2.602094412E-2,-1.975741424E-2
2.362262932E0,-5.488078110E-3,2.495594509E-2,-1.336741354E-2
2.367316526E0,-1.933307946E-2,2.389094420E-2,-9.107413702E-3
2.372370119E0,-3.530807793E-2,2.069594525E-2,-3.782414133E-3
2.377423765E0,-5.234807730E-2,7.915944792E-3,-2.717413940E-3
2.382477359E0,-6.938807666E-2,-4.864055198E-3,-1.652413979E-3
2.387530953E0,-8.323308080E-2,-1.977405511E-2,-5.874139606E-4
2.392583609E0,-9.494807571E-2,-3.255405277E-2,-2.717413940E-3
2.397637203E0,-9.494807571E-2,-3.574905545E-2,-6.977413781E-3
2.402690797E0,-8.749307692E-2,-3.681405634E-2,-1.123741362E-2
2.407744442E0,-7.577808201E-2,-2.829405479E-2,-1.549741346E-2
2.412798036E0,-5.980307981E-2,-2.296905592E-2,-2.295241319E-2
2.417851630E0,-3.850308061E-2,-1.764405519E-2,-2.934241295E-2
2.422885484E0,-1.400807779E-2,-1.444905438E-2,-3.573241457E-2
2.427939078E0,1.155192219E-2,-1.018905547E-2,-3.999241441E-2
2.432992672E0,2.965692058E-2,-2.734054811E-3,-4.105741531E-2
2.438046317E0,4.350192100E-2,8.980944753E-3,-4.318741336E-2
2.443099911E0,4.776192084E-2,1.750094444E-2,-3.786241263E-2
2.448153505E0,4.350192100E-2,2.495594509E-2,-2.827741392E-2
2.453153869E0,2.965692058E-2,2.921594493E-2,-1.656241342E-2
2.458207463E0,7.291921880E-3,3.347594291E-2,-6.977413781E-3
2.463261057E0,-1.826807857E-2,3.667094558E-2,2.607585862E-3
2.468314703E0,-4.382807761E-2,3.347594291E-2,8.997586556E-3
2.473368297E0,-6.512808055E-2,3.028094582E-2,1.112758648E-2
2.478421890E0,-8.429808170E-2,2.708594501E-2,1.219258644E-2
2.483469599E0,-9.388308227E-2,2.602094412E-2,1.006258652E-2
2.488523192E0,-9.494807571E-2,2.815094590E-2,5.802586209E-3
2.493576786E0,-8.962307870E-2,3.134594485E-2,-5.874139606E-4
2.498630432E0,-7.471308112E-2,3.667094558E-2,-5.912413821E-3
2.503684026E0,-5.021807924E-2,3.454094380E-2,-1.230241358E-2
2.508737619E0,-2.252807841E-2,2.495594509E-2,-1.975741424E-2
2.513796422E0,5.161922425E-3,8.980944753E-3,-2.082241327E-2
2.518850015E0,3.285191953E-2,-5.929054692E-3,-2.401741408E-2
2.523903609E0,6.480192393E-2,-2.083905414E-2,-2.721241303E-2
2.528957255E0,9.142692387E-2,-3.255405277E-2,-2.934241295E-2
2.534010849E0,1.127269194E-1,-4.000905156E-2,-3.147241473E-2
2.539064442E0,1.255069226E-1,-4.213905334E-2,-2.295241319E-2
2.544098140E0,1.393519193E-1,-4.533405602E-2,-1.656241342E-2
2.549151734E0,1.457419246E-1,-4.107405245E-2,-8.042413741E-3
2.554205328E0,1.404169202E-1,-3.894405812E-2,-5.912413821E-3
2.559258974E0,1.308319271E-1,-3.361905366E-2,-1.230241358E-2
2.564312567E0,1.148569211E-1,-3.148905188E-2,-2.082241327E-2
2.569366161E0,9.142692387E-2,-2.935905568E-2,-2.721241303E-2
2.574379494E0,6.480192393E-2,-2.296905592E-2,-3.360241279E-2
2.579433088E0,3.817692026E-2,-1.338405535E-2,-3.573241457E-2
2.584486682E0,1.368192211E-2,-9.124054573E-3,-3.040741384E-2
2.589540328E0,-8.683077991E-3,-6.040551234E-4,-2.401741408E-2
2.594593922E0,-2.785307914E-2,5.785944872E-3,-1.869241334E-2
2.599647515E0,-4.489307851E-2,2.590944991E-3,-1.336741354E-2
2.604685119E0,-5.341307819E-2,-6.040551234E-4,-1.336741354E-2
2.609738713E0,-5.660807714E-2,-8.059054613E-3,-9.107413702E-3
2.614792307E0,-5.554307997E-2,-4.864055198E-3,-2.717413940E-3
2.619845953E0,-4.595807940E-2,-6.040551234E-4,3.672586055E-3
2.624899547E0,-2.998307720E-2,-6.040551234E-4,5.802586209E-3
2.629953140E0,-1.187807787E-2,-4.864055198E-3,1.006258652E-2
2.635008036E0,1.048692223E-2,-1.125405543E-2,1.432258636E-2
2.640061630E0,3.498192132E-2,-1.657905430E-2,1.432258636E-2
2.645115224E0,5.521691963E-2,-2.190405503E-2,8.997586556E-3
2.650168869E0,7.225692272E-2,-1.870905422E-2,5.802586209E-3
2.655222463E0,8.716692030E-2,-2.734054811E-3,-5.874139606E-4
2.660276057E0,9.249192476E-2,7.915944792E-3,-9.107413702E-3
2.665292724E0,8.823192120E-2,2.176094428E-2,-1.656241342E-2
2.670346317E0,7.758191973E-2,3.454094380E-2,-2.082241327E-2
2.675399911E0,5.841192231E-2,4.199594259E-2,-2.401741408E-2
2.680453557E0,3.285191953E-2,5.051594228E-2,-2.508241311E-2
2.685507151E0,4.096921999E-3,5.371094495E-2,-1.656241342E-2
2.690560744E0,-2.891807631E-2,4.838594794E-2,-5.912413821E-3
2.695595380E0,-5.767307803E-2,5.264594406E-2,4.737586249E-3
2.700648974E0,-8.323308080E-2,5.051594228E-2,1.325758640E-2
2.705702567E0,-9.814307839E-2,4.732094705E-2,2.071258612E-2
2.710756213E0,-1.066630781E-1,4.412594438E-2,2.603758685E-2
2.715809807E0,-1.055980772E-1,4.412594438E-2,2.923258580E-2
2.720863401E0,-9.388308227E-2,3.454094380E-2,3.029758669E-2
2.725903349E0,-7.577808201E-2,2.708594501E-2,3.136258572E-2
2.730956942E0,-5.341307819E-2,2.602094412E-2,2.603758685E-2
2.736010536E0,-3.211307898E-2,2.708594501E-2,2.284258604E-2
2.741064182E0,-8.683077991E-3,3.028094582E-2,1.964758709E-2
2.746117776E0,1.155192219E-2,3.454094380E-2,2.284258604E-2
2.751171369E0,2.859192342E-2,3.454094380E-2,2.710258588E-2
2.756205849E0,4.137192294E-2,3.028094582E-2,3.136258572E-2
2.761259442E0,4.776192084E-2,1.643594541E-2,3.455758467E-2
2.766313036E0,4.882692173E-2,3.655944951E-3,3.668758646E-2
2.771366682E0,4.563192278E-2,-1.125405543E-2,3.349258751E-2
2.776420276E0,3.604692221E-2,-2.190405503E-2,2.710258588E-2
2.781473869E0,2.433192357E-2,-3.255405277E-2,2.071258612E-2
2.786526317E0,1.048692223E-2,-3.787905723E-2,1.858258620E-2
2.791579911E0,-3.358077724E-3,-3.787905723E-2,1.538758632E-2
2.796633505E0,-1.826807857E-2,-2.829405479E-2,1.112758648E-2
2.801687151E0,-3.211307898E-2,-1.551405527E-2,1.006258652E-2
2.806740744E0,-4.702308029E-2,-6.040551234E-4,1.325758640E-2
2.811794338E0,-6.086808071E-2,1.324094459E-2,1.751758531E-2
2.816859130E0,-7.258307934E-2,2.602094412E-2,1.964758709E-2
2.821912724E0,-8.216807991E-2,3.667094558E-2,2.497258596E-2
2.826966317E0,-8.749307692E-2,4.412594438E-2,3.029758669E-2
2.832019963E0,-9.175308049E-2,4.945094138E-2,3.881758451E-2
2.837073557E0,-9.175308049E-2,5.264594406E-2,4.627258703E-2
2.842127151E0,-8.962307870E-2,5.051594228E-2,5.266258493E-2
2.847152724E0,-8.536307514E-2,4.838594794E-2,5.479258671E-2
2.852204130E0,-7.577808201E-2,4.519094527E-2,5.585758761E-2
2.857255484E0,-6.193307787E-2,3.667094558E-2,5.905258656E-2
2.862306838E0,-4.595807940E-2,2.176094428E-2,6.118258461E-2
2.867358244E0,-2.891807631E-2,7.915944792E-3,5.905258656E-2
2.872409599E0,-1.081307791E-2,-6.040551234E-4,5.585758761E-2
2.877470797E0,4.096921999E-3,4.609450698E-4,4.840258509E-2
2.882522151E0,1.155192219E-2,3.655944951E-3,3.988258541E-2
2.887573557E0,1.581192203E-2,2.590944991E-3,3.029758669E-2
2.892624911E0,1.794192195E-2,8.980944753E-3,2.177758701E-2
2.897676265E0,1.368192211E-2,8.980944753E-3,1.325758640E-2
2.902727672E0,1.966922078E-3,7.915944792E-3,1.325758640E-2
2.907775276E0,-9.748077951E-3,1.525945030E-3,1.538758632E-2
2.912826630E0,-2.359307930E-2,-4.864055198E-3,1.751758531E-2
2.917878036E0,-3.850308061E-2,-9.124054573E-3,2.071258612E-2
2.922929390E0,-4.915307835E-2,-1.551405527E-2,2.390758693E-2
2.927980744E0,-5.341307819E-2,-1.977405511E-2,2.497258596E-2
2.933032151E0,-5.021807924E-2,-1.870905422E-2,2.390758693E-2
2.938074963E0,-4.595807940E-2,-6.994054653E-3,2.390758693E-2
2.943126317E0,-3.637307882E-2,8.980944753E-3,1.858258620E-2
2.948177724E0,-2.678807825E-2,2.389094420E-2,1.325758640E-2
2.953229078E0,-1.826807857E-2,3.347594291E-2,7.932586595E-3
2.958280432E0,-1.081307791E-2,3.454094380E-2,6.867586169E-3
2.963331838E0,-5.488078110E-3,4.093094170E-2,4.775859998E-4
2.968375901E0,-5.488078110E-3,4.732094705E-2,-5.912413821E-3
2.973427307E0,-5.488078110E-3,5.371094495E-2,-5.912413821E-3
2.978478661E0,-7.618078031E-3,5.690594763E-2,-1.017241366E-2
2.983530015E0,-9.748077951E-3,4.945094138E-2,-1.656241342E-2
2.988581422E0,-1.720307767E-2,3.667094558E-2,-2.082241327E-2
2.993632776E0,-2.146307752E-2,2.282594517E-2,-2.614741400E-2
2.998677619E0,-2.359307930E-2,8.980944753E-3,-2.614741400E-2
3.003729026E0,-2.359307930E-2,-1.669054851E-3,-2.721241303E-2
3.008780380E0,-1.826807857E-2,-1.338405535E-2,-3.147241473E-2
3.013831734E0,-1.081307791E-2,-2.722905576E-2,-3.679741547E-2
3.018883140E0,-1.630779589E-4,-4.213905334E-2,-3.786241263E-2
3.023934494E0,1.261692215E-2,-4.000905156E-2,-3.679741547E-2
3.028961994E0,2.752692252E-2,-2.403405495E-2,-3.573241457E-2
3.034013349E0,3.604692221E-2,1.525945030E-3,-3.360241279E-2
3.039064755E0,4.350192100E-2,2.815094590E-2,-3.253741562E-2
3.044116109E0,4.989192262E-2,5.584094673E-2,-3.040741384E-2
3.049167463E0,5.521691963E-2,8.353094757E-2,-2.401741408E-2
3.054218817E0,5.628192052E-2,1.154809445E-1,-1.336741354E-2
3.059291994E0,5.734692141E-2,1.389109343E-1,-5.874139606E-4
3.064343349E0,5.841192231E-2,1.474309415E-1,7.932586595E-3
3.069394755E0,5.202192068E-2,1.410409361E-1,1.538758632E-2
3.074446109E0,4.776192084E-2,1.282609403E-1,1.432258636E-2
3.079497463E0,4.137192294E-2,1.080259457E-1,1.112758648E-2
3.084548869E0,3.711191937E-2,8.566094935E-2,5.802586209E-3
3.089602463E0,3.072192147E-2,6.436094642E-2,-3.782414133E-3
3.094653817E0,2.539692074E-2,5.264594406E-2,-1.336741354E-2
3.099705224E0,1.687692106E-2,4.306094348E-2,-2.401741408E-2
3.104756578E0,1.048692223E-2,3.028094582E-2,-3.892741352E-2
3.109807932E0,8.356922306E-3,2.176094428E-2,-4.957741499E-2
3.114859338E0,6.226921920E-3,1.750094444E-2,-5.277241394E-2
3.119913088E0,8.356922306E-3,7.915944792E-3,-5.064241216E-2
3.124964442E0,1.155192219E-2,4.609450698E-4,-5.064241216E-2
3.130015849E0,1.794192195E-2,-1.669054851E-3,-4.744741321E-2
3.135067203E0,2.433192357E-2,6.850944832E-3,-4.744741321E-2
3.140118557E0,3.285191953E-2,1.856594533E-2,-4.638241231E-2
3.145169963E0,4.030692205E-2,2.921594493E-2,-4.851241410E-2
3.150250849E0,4.563192278E-2,3.454094380E-2,-4.744741321E-2
3.155302255E0,4.882692173E-2,3.560594469E-2,-4.425241426E-2
3.160353557E0,4.989192262E-2,3.986594826E-2,-3.999241441E-2
3.165404963E0,5.095691979E-2,4.625594616E-2,-3.466741368E-2
3.170456317E0,4.882692173E-2,4.838594794E-2,-3.253741562E-2
3.175507672E0,4.243692011E-2,5.051594228E-2,-3.147241473E-2
3.180513869E0,2.646192163E-2,5.158094317E-2,-3.040741384E-2
3.185565276E0,1.261692215E-2,5.051594228E-2,-3.360241279E-2
3.190616682E0,-7.618078031E-3,4.838594794E-2,-3.466741368E-2
3.195667984E0,-2.785307914E-2,4.732094705E-2,-3.360241279E-2
3.200719390E0,-4.276308045E-2,4.732094705E-2,-3.147241473E-2
3.205770744E0,-5.873807892E-2,4.519094527E-2,-3.147241473E-2
3.210864390E0,-7.151807845E-2,5.051594228E-2,-2.934241295E-2
3.215915744E0,-7.577808201E-2,5.264594406E-2,-2.827741392E-2
3.220967099E0,-7.471308112E-2,5.051594228E-2,-2.401741408E-2
3.226018453E0,-7.151807845E-2,5.158094317E-2,-1.975741424E-2
3.231069859E0,-6.299807876E-2,4.625594616E-2,-1.443241350E-2
3.236121213E0,-5.234807730E-2,3.454094380E-2,-1.656241342E-2
3.241129755E0,-4.276308045E-2,1.963094436E-2,-2.401741408E-2
3.246181109E0,-3.317807987E-2,1.004594564E-2,-2.934241295E-2
3.251232515E0,-2.572307736E-2,1.111094467E-2,-2.934241295E-2
3.256283869E0,-1.826807857E-2,2.389094420E-2,-2.721241303E-2
3.261335224E0,-1.294307783E-2,3.560594469E-2,-2.401741408E-2
3.266386630E0,-6.553078070E-3,4.093094170E-2,-1.869241334E-2
3.271439026E0,-1.228077803E-3,4.199594259E-2,-1.230241358E-2
3.276490432E0,3.031922039E-3,4.199594259E-2,-3.782414133E-3
3.281541786E0,8.356922306E-3,3.986594826E-2,4.737586249E-3
3.286593140E0,1.368192211E-2,3.773594648E-2,1.006258652E-2
3.291644494E0,2.220192179E-2,3.028094582E-2,1.219258644E-2
3.296695901E0,2.752692252E-2,2.282594517E-2,1.645258628E-2
3.301751057E0,3.391692042E-2,1.217594463E-2,1.751758531E-2
3.306802411E0,4.137192294E-2,5.785944872E-3,1.432258636E-2
3.311853817E0,4.456692189E-2,8.980944753E-3,5.802586209E-3
3.316905172E0,4.243692011E-2,1.217594463E-2,-8.042413741E-3
3.321956526E0,3.391692042E-2,1.750094444E-2,-2.082241327E-2
3.327007984E0,2.326692268E-2,2.176094428E-2,-3.360241279E-2
3.332057047E0,1.155192219E-2,2.495594509E-2,-4.425241426E-2
3.337108401E0,-1.630779589E-4,2.708594501E-2,-4.744741321E-2
3.342159807E0,-1.507307868E-2,2.921594493E-2,-4.531741515E-2
3.347211213E0,-2.465807647E-2,2.602094412E-2,-4.105741531E-2
3.352262515E0,-3.637307882E-2,1.963094436E-2,-3.360241279E-2
3.357313922E0,-4.382807761E-2,4.720944911E-3,-2.188741416E-2
3.362355901E0,-5.234807730E-2,-9.124054573E-3,-1.549741346E-2
3.367407307E0,-5.660807714E-2,-1.338405535E-2,-9.107413702E-3
3.372458661E0,-5.447807908E-2,-1.444905438E-2,-5.912413821E-3
3.377510015E0,-5.021807924E-2,-8.059054613E-3,-5.912413821E-3
3.382561422E0,-4.276308045E-2,1.525945030E-3,-4.847413860E-3
3.387612776E0,-3.104807809E-2,1.004594564E-2,-5.874139606E-4
3.392648713E0,-2.039807662E-2,1.537094545E-2,-5.874139606E-4
3.397700119E0,-6.553078070E-3,2.069594525E-2,1.542586018E-3
3.402751474E0,1.155192219E-2,1.856594533E-2,2.607585862E-3
3.407802828E0,2.752692252E-2,1.750094444E-2,4.737586249E-3
3.412854182E0,4.350192100E-2,1.856594533E-2,3.672586055E-3
3.417905536E0,5.734692141E-2,1.430594455E-2,5.802586209E-3
3.422960953E0,6.799691916E-2,1.111094467E-2,5.802586209E-3
3.428012307E0,7.971192151E-2,8.980944753E-3,2.607585862E-3
3.433063713E0,8.397191763E-2,4.720944911E-3,-2.717413940E-3
3.438115067E0,8.610191941E-2,3.655944951E-3,-1.230241358E-2
3.443166422E0,8.290692419E-2,-1.669054851E-3,-1.975741424E-2
3.448217828E0,7.864692062E-2,-5.929054692E-3,-2.508241311E-2
3.453280901E0,6.906192005E-2,-6.994054653E-3,-2.827741392E-2
3.458332255E0,5.628192052E-2,-3.799055237E-3,-2.614741400E-2
3.463383661E0,4.243692011E-2,2.590944991E-3,-2.721241303E-2
3.468435015E0,2.859192342E-2,1.525945030E-3,-2.721241303E-2
3.473486369E0,1.261692215E-2,1.525945030E-3,-2.188741416E-2
3.478537776E0,1.966922078E-3,-6.040551234E-4,-1.656241342E-2
3.483585067E0,-6.553078070E-3,4.609450698E-4,-1.017241366E-2
3.488636422E0,-1.613807678E-2,1.525945030E-3,-6.977413781E-3
3.493687828E0,-2.252807841E-2,-6.040551234E-4,-8.042413741E-3
3.498739182E0,-2.785307914E-2,1.525945030E-3,-1.017241366E-2
3.503790536E0,-3.424307704E-2,4.720944911E-3,-1.017241366E-2
3.508841994E0,-3.637307882E-2,8.980944753E-3,-8.042413741E-3
3.513902047E0,-3.530807793E-2,1.537094545E-2,-5.912413821E-3
3.518953401E0,-3.317807987E-2,1.856594533E-2,-1.652413979E-3
3.524004755E0,-2.572307736E-2,2.495594509E-2,4.775859998E-4
3.529056161E0,-1.933307946E-2,2.495594509E-2,-1.652413979E-3
3.534107515E0,-1.400807779E-2,2.176094428E-2,-4.847413860E-3
3.539158869E0,-9.748077951E-3,1.643594541E-2,-1.656241342E-2
3.544185484E0,-6.553078070E-3,5.785944872E-3,-2.721241303E-2
3.549236890E0,-2.293077996E-3,-6.040551234E-4,-2.934241295E-2
3.554288192E0,3.031922039E-3,4.609450698E-4,-2.827741392E-2
3.559339599E0,8.356922306E-3,3.655944951E-3,-2.508241311E-2
3.564390953E0,1.581192203E-2,8.980944753E-3,-1.975741424E-2
3.569442359E0,1.900692284E-2,1.111094467E-2,-1.443241350E-2
3.574487828E0,2.326692268E-2,1.111094467E-2,-1.123741362E-2
3.579539234E0,2.539692074E-2,1.643594541E-2,-1.443241350E-2
3.584590588E0,2.646192163E-2,2.495594509E-2,-1.443241350E-2
3.589641942E0,2.433192357E-2,3.347594291E-2,-9.107413702E-3
3.594693349E0,2.539692074E-2,4.519094527E-2,-2.717413940E-3
3.599744703E0,2.752692252E-2,5.903594196E-2,8.997586556E-3
3.604771474E0,2.752692252E-2,6.542594731E-2,2.177758701E-2
3.609822828E0,3.178692237E-2,5.797094852E-2,3.029758669E-2
3.614874182E0,2.859192342E-2,5.051594228E-2,3.775258735E-2
3.619925588E0,2.859192342E-2,4.093094170E-2,3.668758646E-2
3.624976942E0,2.646192163E-2,2.495594509E-2,3.562258556E-2
3.630028297E0,2.433192357E-2,1.430594455E-2,3.455758467E-2
3.635090276E0,2.326692268E-2,6.850944832E-3,3.136258572E-2
3.640141630E0,2.220192179E-2,4.720944911E-3,2.710258588E-2
3.645192984E0,2.326692268E-2,1.004594564E-2,2.284258604E-2
3.650244390E0,1.794192195E-2,1.430594455E-2,1.964758709E-2
3.655295744E0,1.900692284E-2,2.176094428E-2,1.858258620E-2
3.660347099E0,1.900692284E-2,2.708594501E-2,1.219258644E-2
3.665394807E0,1.794192195E-2,3.454094380E-2,8.997586556E-3
3.670446161E0,1.900692284E-2,3.560594469E-2,4.737586249E-3
3.675497515E0,1.900692284E-2,3.347594291E-2,1.542586018E-3
3.680548922E0,2.113692090E-2,3.134594485E-2,3.672586055E-3
3.685600276E0,2.007192373E-2,3.454094380E-2,8.997586556E-3
3.690651630E0,1.794192195E-2,3.773594648E-2,1.219258644E-2
3.695695224E0,1.368192211E-2,3.773594648E-2,1.645258628E-2
3.700746578E0,1.048692223E-2,3.347594291E-2,1.964758709E-2
3.705797984E0,6.226921920E-3,3.028094582E-2,2.284258604E-2
3.710849338E0,-1.630779589E-4,2.389094420E-2,2.284258604E-2
3.715900692E0,-6.553078070E-3,1.643594541E-2,2.603758685E-2
3.720952099E0,-8.683077991E-3,1.324094459E-2,2.923258580E-2
3.725995172E0,-1.081307791E-2,1.324094459E-2,3.029758669E-2
3.731046526E0,-9.748077951E-3,1.324094459E-2,3.136258572E-2
3.736097932E0,-6.553078070E-3,1.324094459E-2,3.349258751E-2
3.741149338E0,-1.228077803E-3,1.430594455E-2,3.349258751E-2
3.746200692E0,5.161922425E-3,1.643594541E-2,3.029758669E-2
3.751252047E0,1.048692223E-2,1.750094444E-2,2.497258596E-2
3.756295797E0,1.581192203E-2,1.643594541E-2,2.071258612E-2
3.761347151E0,2.007192373E-2,1.856594533E-2,1.858258620E-2
3.766398557E0,2.326692268E-2,1.750094444E-2,1.538758632E-2
3.771449911E0,2.646192163E-2,1.430594455E-2,1.538758632E-2
3.776501265E0,2.859192342E-2,1.004594564E-2,1.219258644E-2
3.781552672E0,2.752692252E-2,5.785944872E-3,8.997586556E-3
3.786606890E0,2.752692252E-2,4.609450698E-4,7.932586595E-3
3.791658244E0,2.965692058E-2,1.525945030E-3,5.802586209E-3
3.796709599E0,2.539692074E-2,4.609450698E-4,1.542586018E-3
3.801761005E0,2.007192373E-2,4.609450698E-4,-2.717413940E-3
3.806812359E0,1.687692106E-2,4.609450698E-4,-9.107413702E-3
3.811863713E0,9.421922266E-3,-3.799055237E-3,-1.230241358E-2
3.816926682E0,-1.228077803E-3,-1.125405543E-2,-1.230241358E-2
3.821978036E0,-1.081307791E-2,-1.657905430E-2,-9.107413702E-3
3.827029390E0,-1.613807678E-2,-1.977405511E-2,-1.652413979E-3
3.832080797E0,-2.039807662E-2,-2.403405495E-2,7.932586595E-3
3.837132151E0,-2.039807662E-2,-2.083905414E-2,1.751758531E-2
3.842183505E0,-1.613807678E-2,-1.764405519E-2,2.390758693E-2
3.847239651E0,-1.187807787E-2,-1.657905430E-2,2.816758677E-2
3.852290744E0,-5.488078110E-3,-1.444905438E-2,2.710258588E-2
3.857341734E0,-2.293077996E-3,-1.231905539E-2,2.497258596E-2
3.862392724E0,9.019220597E-4,-8.059054613E-3,2.390758693E-2
3.867443817E0,8.356922306E-3,-3.799055237E-3,2.177758701E-2
3.872494807E0,1.474692207E-2,3.655944951E-3,2.284258604E-2
3.877528297E0,1.794192195E-2,7.915944792E-3,2.284258604E-2
3.882579338E0,2.113692090E-2,1.430594455E-2,2.497258596E-2
3.887630380E0,2.752692252E-2,1.537094545E-2,2.071258612E-2
3.892681422E0,3.178692237E-2,1.430594455E-2,2.071258612E-2
3.897732463E0,3.178692237E-2,1.004594564E-2,2.071258612E-2
3.902783453E0,2.646192163E-2,1.525945030E-3,1.751758531E-2
3.907860484E0,2.113692090E-2,1.525945030E-3,1.432258636E-2
3.912911526E0,1.368192211E-2,-3.799055237E-3,1.112758648E-2
3.917962515E0,5.161922425E-3,-4.864055198E-3,8.997586556E-3
3.923013557E0,-4.423077684E-3,-9.124054573E-3,8.997586556E-3
3.928064599E0,-1.187807787E-2,-8.059054613E-3,8.997586556E-3
3.933115640E0,-1.933307946E-2,-9.124054573E-3,1.112758648E-2
3.938168036E0,-2.678807825E-2,-1.657905430E-2,1.645258628E-2
3.943219078E0,-3.104807809E-2,-1.764405519E-2,2.071258612E-2
3.948270067E0,-2.891807631E-2,-1.977405511E-2,2.177758701E-2
3.953321109E0,-2.146307752E-2,-2.509905584E-2,2.603758685E-2
3.958372151E0,-9.748077951E-3,-2.403405495E-2,2.923258580E-2
3.963423192E0,1.966922078E-3,-1.870905422E-2,2.603758685E-2
3.968452203E0,1.687692106E-2,-3.799055237E-3,2.497258596E-2
3.973503244E0,2.965692058E-2,3.655944951E-3,2.071258612E-2
3.978554234E0,3.817692026E-2,1.643594541E-2,1.432258636E-2
3.983605276E0,4.456692189E-2,1.963094436E-2,1.006258652E-2
3.988656317E0,4.456692189E-2,2.069594525E-2,8.997586556E-3
3.993707359E0,4.030692205E-2,2.282594517E-2,8.997586556E-3
3.998764651E0,3.604692221E-2,1.643594541E-2,1.432258636E-2
4.003815692E0,2.539692074E-2,8.980944753E-3,1.858258620E-2
4.008866682E0,1.581192203E-2,3.655944951E-3,2.603758685E-2
4.013917724E0,8.356922306E-3,-5.929054692E-3,3.029758669E-2
4.018968765E0,9.019220597E-4,-1.764405519E-2,3.242758662E-2
4.024019755E0,-1.228077803E-3,-3.361905366E-2,3.029758669E-2
4.029087307E0,-6.553078070E-3,-4.426905513E-2,2.497258596E-2
4.034138349E0,-8.683077991E-3,-5.598405749E-2,2.071258612E-2
4.039189390E0,-9.748077951E-3,-5.598405749E-2,1.964758709E-2
4.044240432E0,-7.618078031E-3,-5.704905838E-2,2.497258596E-2
4.049291474E0,-4.423077684E-3,-5.065905303E-2,2.923258580E-2
4.054342515E0,-4.423077684E-3,-4.213905334E-2,3.136258572E-2
4.059383817E0,-6.553078070E-3,-4.107405245E-2,3.242758662E-2
4.064434859E0,-7.618078031E-3,-3.574905545E-2,2.816758677E-2
4.069485849E0,-1.294307783E-2,-3.255405277E-2,2.923258580E-2
4.074536942E0,-1.933307946E-2,-2.509905584E-2,3.029758669E-2
4.079587984E0,-2.678807825E-2,-2.296905592E-2,2.923258580E-2
4.084638974E0,-3.743807971E-2,-1.444905438E-2,3.136258572E-2
4.089690536E0,-5.021807924E-2,-1.018905547E-2,2.923258580E-2
4.094741578E0,-5.767307803E-2,-1.338405535E-2,2.497258596E-2
4.099792567E0,-6.406307966E-2,-1.551405527E-2,2.284258604E-2
4.104843609E0,-6.725808233E-2,-2.296905592E-2,2.177758701E-2
4.109894651E0,-6.512808055E-2,-2.509905584E-2,2.071258612E-2
4.114945692E0,-6.299807876E-2,-2.829405479E-2,1.858258620E-2
4.119975380E0,-6.086808071E-2,-2.083905414E-2,1.432258636E-2
4.125026369E0,-5.234807730E-2,-1.018905547E-2,1.112758648E-2
4.130077411E0,-4.489307851E-2,4.609450698E-4,5.802586209E-3
4.135128401E0,-3.637307882E-2,7.915944792E-3,4.737586249E-3
4.140179442E0,-2.785307914E-2,8.980944753E-3,3.672586055E-3
4.145230484E0,-1.933307946E-2,1.643594541E-2,4.737586249E-3
4.150319963E0,-1.294307783E-2,2.815094590E-2,6.867586169E-3
4.155371005E0,-9.748077951E-3,2.921594493E-2,1.219258644E-2
4.160422047E0,-7.618078031E-3,2.282594517E-2,1.964758709E-2
4.165473088E0,-6.553078070E-3,1.537094545E-2,2.816758677E-2
4.170524130E0,-8.683077991E-3,1.004594564E-2,3.349258751E-2
4.175575119E0,-6.553078070E-3,6.850944832E-3,3.668758646E-2
4.180614547E0,-4.423077684E-3,6.850944832E-3,4.201258719E-2
4.185665588E0,-1.630779589E-4,5.785944872E-3,4.414258525E-2
4.190716630E0,4.096921999E-3,3.655944951E-3,4.094758630E-2
4.195767672E0,6.226921920E-3,1.525945030E-3,3.668758646E-2
4.200818713E0,1.261692215E-2,-6.040551234E-4,3.349258751E-2
4.205869703E0,1.687692106E-2,-3.799055237E-3,2.923258580E-2
4.210921213E0,1.900692284E-2,-5.929054692E-3,2.816758677E-2
4.215972255E0,2.433192357E-2,-4.864055198E-3,2.710258588E-2
4.221023297E0,2.752692252E-2,3.655944951E-3,2.710258588E-2
4.226074286E0,2.965692058E-2,1.537094545E-2,2.177758701E-2
4.231125380E0,2.859192342E-2,1.963094436E-2,1.751758531E-2
4.236176422E0,2.752692252E-2,1.856594533E-2,1.325758640E-2
4.241231630E0,2.326692268E-2,1.643594541E-2,6.867586169E-3
4.246282672E0,2.113692090E-2,1.111094467E-2,3.672586055E-3
4.251333661E0,2.113692090E-2,1.537094545E-2,3.672586055E-3
4.256384703E0,1.368192211E-2,1.963094436E-2,-5.874139606E-4
4.261435744E0,9.421922266E-3,2.069594525E-2,-5.874139606E-4
4.266486786E0,4.096921999E-3,2.069594525E-2,-2.717413940E-3
4.271514859E0,9.019220597E-4,2.389094420E-2,-6.977413781E-3
4.276565901E0,-3.358077724E-3,2.602094412E-2,-9.107413702E-3
4.281616890E0,-7.618078031E-3,2.708594501E-2,-1.443241350E-2
4.286667880E0,-1.081307791E-2,2.495594509E-2,-1.869241334E-2
4.291718974E0,-1.294307783E-2,7.915944792E-3,-1.975741424E-2
4.296769963E0,-1.613807678E-2,-1.018905547E-2,-2.082241327E-2
4.301831786E0,-2.252807841E-2,-2.616405487E-2,-2.082241327E-2
4.306882828E0,-2.572307736E-2,-2.829405479E-2,-1.762741432E-2
4.311933817E0,-2.891807631E-2,-2.403405495E-2,-1.443241350E-2
4.316984859E0,-2.572307736E-2,-2.296905592E-2,-9.107413702E-3
4.322035901E0,-2.252807841E-2,-1.657905430E-2,-3.782414133E-3
4.327086942E0,-1.933307946E-2,-9.124054573E-3,-4.847413860E-3
4.332145380E0,-1.400807779E-2,-1.669054851E-3,-8.042413741E-3
4.337196422E0,-1.187807787E-2,1.525945030E-3,-1.017241366E-2
4.342247463E0,-1.187807787E-2,-1.669054851E-3,-1.017241366E-2
4.347298505E0,-1.294307783E-2,-1.669054851E-3,-6.977413781E-3
4.352349547E0,-1.187807787E-2,-5.929054692E-3,-1.652413979E-3
4.357400536E0,-1.294307783E-2,-6.994054653E-3,4.737586249E-3
4.362444651E0,-1.613807678E-2,-6.040551234E-4,1.219258644E-2
4.367495692E0,-1.720307767E-2,1.111094467E-2,1.325758640E-2
4.372546734E0,-2.146307752E-2,2.495594509E-2,1.112758648E-2
4.377597776E0,-2.359307930E-2,3.347594291E-2,1.219258644E-2
4.382648817E0,-2.252807841E-2,4.093094170E-2,1.538758632E-2
4.387699807E0,-2.039807662E-2,4.838594794E-2,1.432258636E-2
4.392755484E0,-2.039807662E-2,4.625594616E-2,1.645258628E-2
4.397806526E0,-1.720307767E-2,3.773594648E-2,1.432258636E-2
4.402857567E0,-1.187807787E-2,3.134594485E-2,1.006258652E-2
4.407908609E0,-6.553078070E-3,2.389094420E-2,3.672586055E-3
4.412959651E0,1.966922078E-3,1.537094545E-2,-2.717413940E-3
4.418010640E0,1.261692215E-2,1.004594564E-2,-6.977413781E-3
4.423058140E0,2.007192373E-2,6.850944832E-3,-1.230241358E-2
4.428109182E0,2.752692252E-2,5.785944872E-3,-1.762741432E-2
4.433160172E0,3.391692042E-2,5.785944872E-3,-2.295241319E-2
4.438211213E0,3.711191937E-2,3.655944951E-3,-3.147241473E-2
4.443262255E0,4.030692205E-2,-2.734054811E-3,-3.253741562E-2
4.448313297E0,4.350192100E-2,-6.994054653E-3,-3.040741384E-2
4.453361786E0,4.350192100E-2,-1.125405543E-2,-2.721241303E-2
4.458412828E0,3.924192116E-2,-1.764405519E-2,-2.401741408E-2
4.463463817E0,3.072192147E-2,-1.764405519E-2,-1.975741424E-2
4.468514911E0,1.900692284E-2,-1.231905539E-2,-1.336741354E-2
4.473565953E0,7.291921880E-3,-8.059054613E-3,-9.107413702E-3
4.478616942E0,-3.358077724E-3,-6.040551234E-4,-3.782414133E-3
4.483687619E0,-1.613807678E-2,8.980944753E-3,2.607585862E-3
4.488738661E0,-2.785307914E-2,1.963094436E-2,4.737586249E-3
4.493789651E0,-3.956807777E-2,2.708594501E-2,8.997586556E-3
4.498840692E0,-4.595807940E-2,2.389094420E-2,5.802586209E-3
4.503891734E0,-5.128308013E-2,2.069594525E-2,6.867586169E-3
4.508942776E0,-5.128308013E-2,1.963094436E-2,3.672586055E-3
4.513980640E0,-5.021807924E-2,1.856594533E-2,1.542586018E-3
4.519031682E0,-4.595807940E-2,1.750094444E-2,-1.652413979E-3
4.524082724E0,-3.743807971E-2,1.643594541E-2,-4.847413860E-3
4.529133765E0,-2.678807825E-2,1.430594455E-2,-1.017241366E-2
4.534184807E0,-1.613807678E-2,6.850944832E-3,-1.549741346E-2
4.539235797E0,-3.358077724E-3,4.609450698E-4,-1.762741432E-2
4.544283453E0,4.096921999E-3,-1.669054851E-3,-1.869241334E-2
4.549334547E0,1.474692207E-2,-3.799055237E-3,-1.762741432E-2
4.554385536E0,2.433192357E-2,-6.040551234E-4,-1.123741362E-2
4.559436578E0,3.178692237E-2,4.720944911E-3,-4.847413860E-3
4.564487567E0,3.924192116E-2,6.850944832E-3,2.607585862E-3
4.569538661E0,4.456692189E-2,8.980944753E-3,8.997586556E-3
4.574593505E0,4.456692189E-2,8.980944753E-3,1.112758648E-2
4.579644547E0,4.456692189E-2,5.785944872E-3,1.325758640E-2
4.584695588E0,4.350192100E-2,5.785944872E-3,1.219258644E-2
4.589746630E0,3.604692221E-2,7.915944792E-3,1.219258644E-2
4.594797672E0,2.752692252E-2,4.720944911E-3,6.867586169E-3
4.599848713E0,1.687692106E-2,2.590944991E-3,-5.874139606E-4
4.604867932E0,3.031922039E-3,-6.040551234E-4,1.542586018E-3
4.609918974E0,-8.683077991E-3,-1.669054851E-3,4.775859998E-4
4.614969963E0,-2.146307752E-2,-2.734054811E-3,4.775859998E-4
4.620021005E0,-2.891807631E-2,-1.018905547E-2,-5.874139606E-4
4.625072047E0,-3.530807793E-2,-1.551405527E-2,-1.652413979E-3
4.630123088E0,-3.424307704E-2,-2.509905584E-2,4.775859998E-4
4.635178713E0,-2.998307720E-2,-2.935905568E-2,-5.874139606E-4
4.640229703E0,-2.572307736E-2,-2.935905568E-2,-2.717413940E-3
4.645280744E0,-1.826807857E-2,-2.616405487E-2,-3.782414133E-3
4.650331786E0,-1.081307791E-2,-1.125405543E-2,-4.847413860E-3
4.655382828E0,-4.423077684E-3,2.590944991E-3,-8.042413741E-3
4.660417984E0,3.031922039E-3,1.643594541E-2,-8.042413741E-3
4.665469026E0,7.291921880E-3,2.708594501E-2,-5.912413821E-3
4.670512828E0,9.421922266E-3,3.560594469E-2,-3.782414133E-3
4.675563765E0,1.155192219E-2,3.560594469E-2,-1.652413979E-3
4.680610380E0,1.048692223E-2,3.241094574E-2,1.542586018E-3
4.685661422E0,8.356922306E-3,2.602094412E-2,2.607585862E-3
4.690727151E0,4.096921999E-3,2.069594525E-2,5.802586209E-3
4.695764963E0,3.031922039E-3,1.324094459E-2,5.802586209E-3
4.700816005E0,9.019220597E-4,4.720944911E-3,3.672586055E-3
4.705881317E0,-3.358077724E-3,-4.864055198E-3,3.672586055E-3
4.710932255E0,-5.488078110E-3,-1.018905547E-2,3.672586055E-3
4.715983297E0,-6.553078070E-3,-1.444905438E-2,2.607585862E-3
4.721034338E0,-5.488078110E-3,-1.551405527E-2,2.607585862E-3
4.726085380E0,-1.228077803E-3,-1.444905438E-2,-5.874139606E-4
4.731136422E0,6.226921920E-3,-1.444905438E-2,-2.717413940E-3
4.736187411E0,1.155192219E-2,-6.994054653E-3,-6.977413781E-3
4.741239390E0,1.368192211E-2,5.785944872E-3,-1.123741362E-2
4.746290380E0,1.900692284E-2,1.643594541E-2,-1.656241342E-2
4.751341422E0,2.007192373E-2,2.602094412E-2,-1.869241334E-2
4.756392463E0,1.687692106E-2,2.495594509E-2,-1.549741346E-2
4.761443505E0,1.261692215E-2,1.856594533E-2,-1.017241366E-2
4.766494494E0,8.356922306E-3,2.176094428E-2,-1.652413979E-3
4.771544026E0,4.096921999E-3,1.537094545E-2,6.867586169E-3
4.776595067E0,-2.293077996E-3,7.915944792E-3,1.538758632E-2
4.781646109E0,-2.293077996E-3,5.785944872E-3,1.858258620E-2
4.786697099E0,-3.358077724E-3,5.785944872E-3,1.751758531E-2
4.791748140E0,-5.488078110E-3,1.525945030E-3,1.325758640E-2
4.796799182E0,-1.228077803E-3,-3.799055237E-3,6.867586169E-3
4.801878661E0,-1.630779589E-4,-1.018905547E-2,4.775859998E-4
4.806929651E0,9.019220597E-4,-1.444905438E-2,-9.107413702E-3
4.811980692E0,1.966922078E-3,-1.444905438E-2,-1.549741346E-2
4.817031734E0,-2.293077996E-3,-1.018905547E-2,-2.508241311E-2
4.822082776E0,-7.618078031E-3,-5.929054692E-3,-3.147241473E-2
4.827133817E0,-1.081307791E-2,-1.669054851E-3,-3.360241279E-2
4.832177359E0,-1.507307868E-2,3.655944951E-3,-3.360241279E-2
4.837228349E0,-2.252807841E-2,1.217594463E-2,-3.147241473E-2
4.842279390E0,-2.678807825E-2,1.750094444E-2,-2.721241303E-2
4.847330432E0,-3.211307898E-2,1.750094444E-2,-2.614741400E-2
4.852381474E0,-3.743807971E-2,1.324094459E-2,-1.762741432E-2
4.857432463E0,-4.276308045E-2,1.525945030E-3,-9.107413702E-3
4.862487672E0,-4.702308029E-2,-1.018905547E-2,-2.717413940E-3
4.867538713E0,-4.808807746E-2,-1.657905430E-2,6.867586169E-3
4.872589755E0,-4.595807940E-2,-1.657905430E-2,1.219258644E-2
4.877640797E0,-3.956807777E-2,-1.338405535E-2,1.964758709E-2
4.882691786E0,-3.317807987E-2,-8.059054613E-3,2.177758701E-2
4.887742828E0,-2.359307930E-2,-4.864055198E-3,2.071258612E-2
4.892781057E0,-1.507307868E-2,-2.734054811E-3,2.071258612E-2
4.897832047E0,-1.228077803E-3,2.590944991E-3,1.751758531E-2
4.902883088E0,8.356922306E-3,5.785944872E-3,1.006258652E-2
4.907934130E0,1.794192195E-2,1.004594564E-2,2.607585862E-3
4.912985172E0,2.752692252E-2,1.963094436E-2,3.672586055E-3
4.918036213E0,3.391692042E-2,2.176094428E-2,1.542586018E-3
4.923080484E0,3.817692026E-2,2.495594509E-2,3.672586055E-3
4.928131526E0,3.711191937E-2,3.028094582E-2,6.867586169E-3
4.933182515E0,2.859192342E-2,4.306094348E-2,6.867586169E-3
4.938233557E0,1.581192203E-2,4.412594438E-2,7.932586595E-3
4.943284599E0,9.019220597E-4,3.560594469E-2,1.112758648E-2
4.948335588E0,-1.294307783E-2,1.750094444E-2,1.858258620E-2
4.953444755E0,-2.785307914E-2,1.525945030E-3,2.177758701E-2
4.958495849E0,-4.169807956E-2,-8.059054613E-3,2.497258596E-2
4.963546838E0,-5.128308013E-2,-1.551405527E-2,2.284258604E-2
4.968597880E0,-5.447807908E-2,-2.403405495E-2,1.538758632E-2
4.973648922E0,-5.767307803E-2,-3.894405812E-2,4.737586249E-3
4.978699963E0,-5.980307981E-2,-5.491905659E-2,-6.977413781E-3
4.983684703E0,-5.447807908E-2,-6.237405539E-2,-1.549741346E-2
4.988735744E0,-5.128308013E-2,-6.343905628E-2,-1.975741424E-2
4.993786786E0,-4.063307866E-2,-6.130905449E-2,-2.082241327E-2
4.998837776E0,-2.678807825E-2,-5.917905271E-2,-2.295241319E-2
5.003888817E0,-1.613807678E-2,-4.852905869E-2,-2.082241327E-2
5.008939859E0,-2.293077996E-3,-3.681405634E-2,-1.975741424E-2
5.014009130E0,8.356922306E-3,-2.403405495E-2,-1.762741432E-2
5.019060172E0,1.581192203E-2,-1.018905547E-2,-1.230241358E-2
5.024111213E0,2.326692268E-2,1.525945030E-3,-2.717413940E-3
5.029162203E0,2.859192342E-2,1.217594463E-2,1.006258652E-2
5.034213244E0,3.391692042E-2,2.495594509E-2,2.071258612E-2
5.039264286E0,3.711191937E-2,3.454094380E-2,3.029758669E-2
5.044305953E0,3.711191937E-2,3.667094558E-2,3.988258541E-2
5.049356994E0,3.498192132E-2,3.667094558E-2,4.094758630E-2
5.054407984E0,3.285191953E-2,3.134594485E-2,3.988258541E-2
5.059459026E0,2.859192342E-2,2.069594525E-2,3.668758646E-2
5.064523088E0,2.539692074E-2,1.430594455E-2,3.136258572E-2
5.069574130E0,2.113692090E-2,8.980944753E-3,2.390758693E-2
5.074607672E0,1.474692207E-2,8.980944753E-3,1.858258620E-2
5.079658661E0,8.356922306E-3,1.004594564E-2,1.432258636E-2
5.084711630E0,-4.423077684E-3,1.324094459E-2,6.867586169E-3
5.089762672E0,-1.826807857E-2,1.750094444E-2,3.672586055E-3
5.094820015E0,-2.998307720E-2,1.963094436E-2,3.672586055E-3
5.099871005E0,-4.382807761E-2,2.282594517E-2,4.737586249E-3
5.104923713E0,-5.234807730E-2,2.069594525E-2,5.802586209E-3
5.109974755E0,-5.341307819E-2,1.643594541E-2,5.802586209E-3
5.115011369E0,-5.554307997E-2,2.590944991E-3,6.867586169E-3
5.120062359E0,-5.447807908E-2,-8.059054613E-3,8.997586556E-3
5.125113401E0,-4.489307851E-2,-1.870905422E-2,1.325758640E-2
5.130164390E0,-3.211307898E-2,-2.722905576E-2,1.751758531E-2
5.135215432E0,-1.720307767E-2,-2.722905576E-2,1.858258620E-2
5.140266474E0,-1.228077803E-3,-2.190405503E-2,1.858258620E-2
5.145317515E0,1.368192211E-2,-1.444905438E-2,1.751758531E-2
5.150407255E0,2.859192342E-2,-9.124054573E-3,1.219258644E-2
5.155458297E0,3.817692026E-2,-3.799055237E-3,4.737586249E-3
5.160509338E0,4.456692189E-2,1.525945030E-3,-2.717413940E-3
5.165560328E0,4.350192100E-2,1.111094467E-2,-6.977413781E-3
5.170611369E0,3.924192116E-2,1.750094444E-2,-8.042413741E-3
5.175662411E0,3.285191953E-2,1.963094436E-2,-8.042413741E-3
5.180722880E0,2.220192179E-2,1.856594533E-2,-1.123741362E-2
5.185773922E0,5.161922425E-3,1.324094459E-2,-1.230241358E-2
5.190824963E0,-1.187807787E-2,3.655944951E-3,-1.869241334E-2
5.195875953E0,-2.998307720E-2,1.525945030E-3,-1.762741432E-2
5.200926994E0,-4.915307835E-2,5.785944872E-3,-1.762741432E-2
5.205978036E0,-6.832307577E-2,2.590944991E-3,-1.549741346E-2
5.211017880E0,-8.110307902E-2,-8.059054613E-3,-1.017241366E-2
5.216068922E0,-9.068807960E-2,-2.190405503E-2,-5.912413821E-3
5.221119963E0,-9.601307660E-2,-4.000905156E-2,-3.782414133E-3
5.226170953E0,-9.707807750E-2,-4.426905513E-2,-2.717413940E-3
5.231221994E0,-9.388308227E-2,-4.107405245E-2,-5.912413821E-3
5.236273036E0,-8.536307514E-2,-3.574905545E-2,-5.912413821E-3
5.241319755E0,-7.364808023E-2,-2.190405503E-2,-1.017241366E-2
5.246370797E0,-5.660807714E-2,-1.657905430E-2,-1.549741346E-2
5.251421786E0,-4.489307851E-2,-5.929054692E-3,-1.656241342E-2
5.256472776E0,-3.104807809E-2,7.915944792E-3,-1.549741346E-2
5.261523869E0,-2.359307930E-2,1.537094545E-2,-1.549741346E-2
5.266574859E0,-1.826807857E-2,1.643594541E-2,-1.549741346E-2
5.271607359E0,-1.400807779E-2,1.430594455E-2,-1.123741362E-2
5.276658401E0,-1.187807787E-2,6.850944832E-3,-5.912413821E-3
5.281709390E0,-1.187807787E-2,3.655944951E-3,-4.847413860E-3
5.286760432E0,-1.613807678E-2,-6.994054653E-3,-1.652413979E-3
5.291811474E0,-1.826807857E-2,-5.929054692E-3,1.542586018E-3
5.296862515E0,-2.359307930E-2,-1.669054851E-3,4.737586249E-3
5.301911786E0,-2.891807631E-2,3.655944951E-3,6.867586169E-3
5.306962828E0,-2.998307720E-2,1.537094545E-2,1.006258652E-2
5.312013817E0,-3.317807987E-2,2.282594517E-2,7.932586595E-3
5.317064859E0,-3.530807793E-2,1.963094436E-2,4.737586249E-3
5.322115901E0,-3.317807987E-2,1.430594455E-2,4.737586249E-3
5.327166942E0,-2.891807631E-2,1.004594564E-2,3.672586055E-3
5.332215536E0,-2.252807841E-2,8.980944753E-3,-4.847413860E-3
5.337266578E0,-1.187807787E-2,1.430594455E-2,-1.443241350E-2
5.342317619E0,-1.630779589E-4,1.643594541E-2,-2.082241327E-2
5.347368609E0,9.421922266E-3,1.856594533E-2,-2.721241303E-2
5.352419651E0,2.007192373E-2,1.643594541E-2,-2.721241303E-2
5.357470692E0,3.178692237E-2,1.856594533E-2,-2.721241303E-2
5.362510276E0,3.924192116E-2,2.602094412E-2,-1.975741424E-2
5.367561317E0,4.669691995E-2,2.708594501E-2,-1.230241358E-2
5.372612359E0,5.308692157E-2,2.602094412E-2,-5.912413821E-3
5.377663349E0,5.947691947E-2,2.282594517E-2,1.542586018E-3
5.382714390E0,6.373692304E-2,1.324094459E-2,3.672586055E-3
5.387765432E0,6.480192393E-2,5.785944872E-3,1.542586018E-3
5.392830276E0,6.799691916E-2,5.785944872E-3,4.775859998E-4
5.397881317E0,6.799691916E-2,1.525945030E-3,-5.874139606E-4
5.402932359E0,6.373692304E-2,4.720944911E-3,4.775859998E-4
5.407983349E0,6.054192036E-2,1.004594564E-2,-1.652413979E-3
5.413034390E0,5.308692157E-2,1.963094436E-2,-1.652413979E-3
5.418085432E0,4.669691995E-2,3.241094574E-2,-3.782414133E-3
5.423124286E0,3.711191937E-2,4.306094348E-2,-6.977413781E-3
5.428175328E0,2.433192357E-2,4.945094138E-2,-9.107413702E-3
5.433226369E0,1.368192211E-2,5.158094317E-2,-1.336741354E-2
5.438277359E0,9.019220597E-4,4.412594438E-2,-1.017241366E-2
5.443328401E0,-8.683077991E-3,3.347594291E-2,-9.107413702E-3
5.448379442E0,-1.400807779E-2,2.708594501E-2,-3.782414133E-3
5.453441057E0,-1.720307767E-2,2.495594509E-2,-2.717413940E-3
5.458492099E0,-1.613807678E-2,2.282594517E-2,-5.874139606E-4
5.463543088E0,-1.187807787E-2,1.856594533E-2,2.607585862E-3
5.468594130E0,-3.358077724E-3,1.856594533E-2,4.737586249E-3
5.473645172E0,5.161922425E-3,1.537094545E-2,4.737586249E-3
5.478696213E0,1.155192219E-2,2.069594525E-2,6.867586169E-3
5.483752047E0,1.900692284E-2,2.708594501E-2,1.006258652E-2
5.488803088E0,2.220192179E-2,2.495594509E-2,6.867586169E-3
5.493854078E0,2.220192179E-2,1.856594533E-2,5.802586209E-3
5.498905119E0,2.220192179E-2,8.980944753E-3,2.607585862E-3
5.503956161E0,1.900692284E-2,4.609450698E-4,2.607585862E-3
5.509007203E0,1.687692106E-2,-8.059054613E-3,3.672586055E-3
5.514050692E0,1.048692223E-2,-1.444905438E-2,-5.874139606E-4
5.519101734E0,9.421922266E-3,-1.657905430E-2,-3.782414133E-3
5.524152776E0,9.421922266E-3,-1.231905539E-2,-4.847413860E-3
5.529203765E0,1.155192219E-2,-5.929054692E-3,-6.977413781E-3
5.534254807E0,1.261692215E-2,4.609450698E-4,-1.017241366E-2
5.539305849E0,1.048692223E-2,6.850944832E-3,-1.336741354E-2
5.544386265E0,8.356922306E-3,1.963094436E-2,-1.336741354E-2
5.549437307E0,6.226921920E-3,2.602094412E-2,-1.017241366E-2
5.554488349E0,5.161922425E-3,2.495594509E-2,-8.042413741E-3
5.559539390E0,1.966922078E-3,1.856594533E-2,-5.874139606E-4
5.564590432E0,1.966922078E-3,1.111094467E-2,5.802586209E-3
5.569641422E0,-2.293077996E-3,7.915944792E-3,8.997586556E-3
5.574657932E0,-3.358077724E-3,1.111094467E-2,1.112758648E-2
5.579708974E0,-3.358077724E-3,1.004594564E-2,1.432258636E-2
5.584759963E0,-4.423077684E-3,1.324094459E-2,1.645258628E-2
5.589811005E0,-9.748077951E-3,1.217594463E-2,1.858258620E-2
5.594862047E0,-1.294307783E-2,1.537094545E-2,1.858258620E-2
5.599913088E0,-1.400807779E-2,1.963094436E-2,2.284258604E-2
5.604968505E0,-1.507307868E-2,2.282594517E-2,2.390758693E-2
5.610019547E0,-1.613807678E-2,2.176094428E-2,2.284258604E-2
5.615070536E0,-1.720307767E-2,1.643594541E-2,1.645258628E-2
5.620121578E0,-1.613807678E-2,1.324094459E-2,7.932586595E-3
5.625172619E0,-1.613807678E-2,1.537094545E-2,1.542586018E-3
5.630223661E0,-1.826807857E-2,2.069594525E-2,-5.912413821E-3
5.635309807E0,-1.933307946E-2,3.028094582E-2,-5.912413821E-3
5.640360901E0,-1.826807857E-2,3.986594826E-2,-5.912413821E-3
5.645411890E0,-2.039807662E-2,3.880094737E-2,-2.717413940E-3
5.650462932E0,-2.039807662E-2,3.241094574E-2,4.775859998E-4
5.655513974E0,-2.039807662E-2,1.856594533E-2,4.775859998E-4
5.660565015E0,-1.613807678E-2,5.785944872E-3,4.775859998E-4
5.665590692E0,-7.618078031E-3,-6.040551234E-4,1.542586018E-3
5.670641734E0,-4.423077684E-3,4.609450698E-4,4.775859998E-4
5.675692724E0,3.031922039E-3,2.590944991E-3,-5.874139606E-4
5.680743765E0,1.048692223E-2,5.785944872E-3,-5.874139606E-4
5.685794807E0,1.687692106E-2,8.980944753E-3,-2.717413940E-3
5.690845849E0,2.113692090E-2,1.643594541E-2,-3.782414133E-3
5.695899807E0,2.326692268E-2,2.602094412E-2,1.542586018E-3
5.700950797E0,2.220192179E-2,3.986594826E-2,6.867586169E-3
5.706001838E0,2.007192373E-2,4.625594616E-2,7.932586595E-3
5.711052880E0,1.900692284E-2,5.264594406E-2,1.006258652E-2
5.716103869E0,1.687692106E-2,5.477594584E-2,1.112758648E-2
5.721154911E0,1.261692215E-2,4.945094138E-2,1.432258636E-2
5.726174182E0,8.356922306E-3,3.560594469E-2,8.997586556E-3
5.731225172E0,6.226921920E-3,2.069594525E-2,6.867586169E-3
5.736276213E0,-1.630779589E-4,5.785944872E-3,5.802586209E-3
5.741327255E0,-1.630779589E-4,-6.040551234E-4,3.672586055E-3
5.746378297E0,-1.228077803E-3,2.590944991E-3,1.542586018E-3
5.751429338E0,-1.228077803E-3,1.525945030E-3,-2.717413940E-3
5.756519807E0,-2.293077996E-3,3.655944951E-3,-5.912413821E-3
5.761570849E0,-3.358077724E-3,6.850944832E-3,-1.123741362E-2
5.766621890E0,-4.423077684E-3,1.111094467E-2,-1.549741346E-2
5.771672880E0,-3.358077724E-3,1.537094545E-2,-1.336741354E-2
5.776723922E0,-2.293077996E-3,1.643594541E-2,-6.977413781E-3
5.781774963E0,-4.423077684E-3,2.282594517E-2,-1.652413979E-3
5.786788453E0,-7.618078031E-3,2.708594501E-2,4.737586249E-3
5.791839442E0,-9.748077951E-3,2.495594509E-2,7.932586595E-3
5.796890484E0,-1.294307783E-2,1.963094436E-2,1.325758640E-2
5.801941526E0,-1.294307783E-2,1.004594564E-2,1.538758632E-2
5.806992567E0,-8.683077991E-3,6.850944832E-3,1.006258652E-2
5.812043557E0,-5.488078110E-3,6.850944832E-3,4.737586249E-3
5.817090224E0,-2.293077996E-3,1.004594564E-2,-5.874139606E-4
5.822141213E0,-1.630779589E-4,6.850944832E-3,-1.017241366E-2
5.827192255E0,5.161922425E-3,1.525945030E-3,-2.188741416E-2
5.832243297E0,8.356922306E-3,-1.669054851E-3,-2.295241319E-2
5.837294338E0,1.368192211E-2,4.609450698E-4,-2.295241319E-2
5.842345328E0,2.007192373E-2,7.915944792E-3,-2.295241319E-2
5.847392255E0,2.007192373E-2,1.111094467E-2,-1.869241334E-2
5.852443244E0,2.007192373E-2,1.643594541E-2,-1.549741346E-2
5.857494286E0,1.900692284E-2,2.495594509E-2,-1.443241350E-2
5.862545328E0,1.368192211E-2,2.815094590E-2,-1.549741346E-2
5.867596369E0,8.356922306E-3,3.347594291E-2,-2.082241327E-2
5.872647359E0,-1.228077803E-3,3.667094558E-2,-2.721241303E-2
5.877744078E0,-9.748077951E-3,3.667094558E-2,-3.360241279E-2
5.882795119E0,-2.146307752E-2,3.773594648E-2,-3.573241457E-2
5.887846161E0,-2.678807825E-2,3.454094380E-2,-3.679741547E-2
5.892897203E0,-3.317807987E-2,3.028094582E-2,-3.679741547E-2
5.897948192E0,-3.850308061E-2,2.282594517E-2,-3.573241457E-2
5.902999234E0,-3.956807777E-2,1.217594463E-2,-3.466741368E-2
5.908038661E0,-3.743807971E-2,7.915944792E-3,-3.679741547E-2
5.913089651E0,-3.317807987E-2,7.915944792E-3,-3.892741352E-2
5.918140692E0,-2.465807647E-2,1.111094467E-2,-3.999241441E-2
5.923191682E0,-1.507307868E-2,7.915944792E-3,-4.105741531E-2
5.928242776E0,-4.423077684E-3,5.785944872E-3,-3.999241441E-2
5.933293765E0,3.031922039E-3,4.609450698E-4,-4.105741531E-2
5.938352411E0,9.421922266E-3,-9.124054573E-3,-3.999241441E-2
5.943403453E0,1.048692223E-2,-1.444905438E-2,-3.679741547E-2
5.948454494E0,1.155192219E-2,-1.444905438E-2,-3.466741368E-2
5.953505484E0,1.261692215E-2,-1.125405543E-2,-3.253741562E-2
5.958556526E0,1.048692223E-2,-1.231905539E-2,-3.040741384E-2
5.963607567E0,9.421922266E-3,-1.231905539E-2,-2.721241303E-2
5.968641734E0,1.048692223E-2,-1.125405543E-2,-2.508241311E-2
5.973692776E0,7.291921880E-3,-1.018905547E-2,-2.934241295E-2
5.978743765E0,6.226921920E-3,-4.864055198E-3,-3.147241473E-2
5.983794807E0,7.291921880E-3,6.850944832E-3,-3.360241279E-2
5.988845849E0,6.226921920E-3,1.856594533E-2,-3.147241473E-2
5.993896890E0,8.356922306E-3,3.134594485E-2,-2.934241295E-2
5.998978765E0,7.291921880E-3,3.667094558E-2,-2.401741408E-2
6.004029859E0,8.356922306E-3,3.773594648E-2,-1.975741424E-2
6.009080849E0,8.356922306E-3,4.199594259E-2,-1.869241334E-2
6.014131890E0,9.421922266E-3,4.838594794E-2,-2.082241327E-2
6.019182932E0,1.048692223E-2,5.051594228E-2,-2.721241303E-2
6.024233974E0,8.356922306E-3,4.945094138E-2,-2.934241295E-2
6.029309182E0,5.161922425E-3,3.560594469E-2,-3.040741384E-2
6.034360224E0,9.019220597E-4,1.963094436E-2,-2.934241295E-2
6.039411265E0,-4.423077684E-3,8.980944753E-3,-2.401741408E-2
6.044462255E0,-8.683077991E-3,4.609450698E-4,-2.082241327E-2
6.049513297E0,-1.294307783E-2,-8.059054613E-3,-2.188741416E-2
6.054564338E0,-1.933307946E-2,-1.444905438E-2,-2.082241327E-2
6.059548140E0,-2.039807662E-2,-2.509905584E-2,-2.401741408E-2
6.064599182E0,-1.720307767E-2,-3.574905545E-2,-2.721241303E-2
6.069650224E0,-1.187807787E-2,-3.574905545E-2,-2.827741392E-2
6.074701213E0,-6.553078070E-3,-3.681405634E-2,-2.614741400E-2
6.079752255E0,9.019220597E-4,-2.616405487E-2,-2.508241311E-2
6.084803297E0,1.261692215E-2,-1.870905422E-2,-2.295241319E-2
6.089851786E0,2.326692268E-2,-1.764405519E-2,-1.869241334E-2
6.094902828E0,3.391692042E-2,-1.444905438E-2,-1.869241334E-2
6.099953817E0,4.563192278E-2,-6.040551234E-4,-1.656241342E-2
6.105004859E0,5.628192052E-2,1.430594455E-2,-1.975741424E-2
6.110055901E0,6.373692304E-2,3.028094582E-2,-2.082241327E-2
6.115106942E0,6.373692304E-2,3.667094558E-2,-1.762741432E-2
6.120167307E0,6.267192215E-2,4.199594259E-2,-1.336741354E-2
6.125218349E0,5.947691947E-2,3.880094737E-2,-4.847413860E-3
6.130269390E0,5.415192246E-2,3.986594826E-2,3.672586055E-3
6.135320380E0,4.669691995E-2,3.880094737E-2,7.932586595E-3
6.140371422E0,3.817692026E-2,2.708594501E-2,1.645258628E-2
6.145422463E0,3.391692042E-2,2.389094420E-2,1.858258620E-2
6.150506057E0,3.178692237E-2,1.643594541E-2,2.284258604E-2
6.155557151E0,3.178692237E-2,1.430594455E-2,2.284258604E-2
6.160608140E0,3.285191953E-2,1.537094545E-2,2.071258612E-2
6.165659182E0,3.178692237E-2,1.643594541E-2,1.538758632E-2
6.170710224E0,3.285191953E-2,1.643594541E-2,8.997586556E-3
6.175761265E0,3.285191953E-2,1.643594541E-2,4.775859998E-4
6.180782932E0,3.391692042E-2,1.856594533E-2,-3.782414133E-3
6.185833974E0,3.498192132E-2,2.921594493E-2,-9.107413702E-3
6.190885015E0,3.391692042E-2,3.560594469E-2,-1.443241350E-2
6.195936005E0,3.285191953E-2,4.306094348E-2,-1.443241350E-2
6.200987047E0,3.498192132E-2,5.051594228E-2,-5.912413821E-3
6.206038088E0,3.498192132E-2,5.477594584E-2,4.737586249E-3
6.211099390E0,3.285191953E-2,4.519094527E-2,1.538758632E-2
6.216150432E0,3.072192147E-2,2.921594493E-2,1.964758709E-2
6.221201474E0,2.646192163E-2,8.980944753E-3,1.538758632E-2
6.226252463E0,2.007192373E-2,-2.734054811E-3,8.997586556E-3
6.231303557E0,1.581192203E-2,-4.864055198E-3,3.672586055E-3
6.236354547E0,1.048692223E-2,1.525945030E-3,-4.847413860E-3
6.241387359E0,3.031922039E-3,1.217594463E-2,-1.336741354E-2
6.246438401E0,-4.423077684E-3,1.856594533E-2,-2.082241327E-2
6.251489442E0,-1.294307783E-2,1.750094444E-2,-2.721241303E-2
6.256540484E0,-1.933307946E-2,1.111094467E-2,-2.934241295E-2
6.261591526E0,-2.146307752E-2,4.609450698E-4,-2.614741400E-2
6.266642515E0,-2.785307914E-2,-5.929054692E-3,-2.295241319E-2
6.271687619E0,-3.104807809E-2,-8.059054613E-3,-2.401741408E-2
6.276738661E0,-2.891807631E-2,-1.551405527E-2,-2.188741416E-2
6.281789703E0,-2.891807631E-2,-1.657905430E-2,-1.975741424E-2
6.286840744E0,-2.678807825E-2,-1.551405527E-2,-1.869241334E-2
6.291891786E0,-2.465807647E-2,-9.124054573E-3,-1.656241342E-2
6.296942776E0,-2.572307736E-2,-1.669054851E-3,-1.443241350E-2
6.301995328E0,-2.678807825E-2,5.785944872E-3,-1.230241358E-2
6.307046369E0,-2.891807631E-2,8.980944753E-3,-6.977413781E-3
6.312097411E0,-3.211307898E-2,1.004594564E-2,-4.847413860E-3
6.317148401E0,-3.211307898E-2,1.217594463E-2,-5.912413821E-3
6.322199442E0,-3.211307898E-2,1.004594564E-2,-2.717413940E-3
6.327250484E0,-3.424307704E-2,1.111094467E-2,-6.977413781E-3
6.332302255E0,-3.424307704E-2,1.324094459E-2,-1.017241366E-2
6.337353297E0,-3.637307882E-2,1.004594564E-2,-1.230241358E-2
6.342404338E0,-3.956807777E-2,3.655944951E-3,-1.975741424E-2
6.347455328E0,-4.276308045E-2,-4.864055198E-3,-2.508241311E-2
6.352506369E0,-4.489307851E-2,-2.083905414E-2,-2.934241295E-2
6.357557411E0,-4.595807940E-2,-3.361905366E-2,-3.360241279E-2
6.362619026E0,-4.169807956E-2,-4.533405602E-2,-3.573241457E-2
6.367670067E0,-3.424307704E-2,-5.598405749E-2,-3.573241457E-2
6.372721109E0,-3.104807809E-2,-5.917905271E-2,-3.679741547E-2
6.377772099E0,-2.572307736E-2,-6.237405539E-2,-3.466741368E-2
6.382823140E0,-1.933307946E-2,-6.343905628E-2,-3.679741547E-2
6.387874182E0,-1.294307783E-2,-5.917905271E-2,-3.573241457E-2
6.392915797E0,-7.618078031E-3,-4.852905869E-2,-3.147241473E-2
6.397966838E0,-2.293077996E-3,-3.148905188E-2,-2.508241311E-2
6.403017880E0,1.966922078E-3,-1.444905438E-2,-2.082241327E-2
6.408068922E0,1.966922078E-3,-1.669054851E-3,-1.443241350E-2
6.413119963E0,1.966922078E-3,7.915944792E-3,-1.017241366E-2
6.418170953E0,-1.630779589E-4,8.980944753E-3,-8.042413741E-3
6.423211161E0,-5.488078110E-3,1.004594564E-2,-3.782414133E-3
6.428262203E0,-8.683077991E-3,7.915944792E-3,1.542586018E-3
6.433313244E0,-1.187807787E-2,5.785944872E-3,8.997586556E-3
6.438364286E0,-1.400807779E-2,6.850944832E-3,1.325758640E-2
6.443415328E0,-1.294307783E-2,4.720944911E-3,1.751758531E-2
6.448466317E0,-1.081307791E-2,4.720944911E-3,2.177758701E-2
6.453520692E0,-7.618078031E-3,1.525945030E-3,2.177758701E-2
6.458571734E0,9.019220597E-4,2.590944991E-3,2.497258596E-2
6.463622776E0,7.291921880E-3,7.915944792E-3,2.284258604E-2
6.468673817E0,1.155192219E-2,1.111094467E-2,2.071258612E-2
6.473724859E0,1.687692106E-2,1.324094459E-2,2.071258612E-2
6.478775849E0,1.794192195E-2,1.004594564E-2,2.177758701E-2
6.483839547E0,1.368192211E-2,4.720944911E-3,1.964758709E-2
6.488890588E0,1.048692223E-2,-2.734054811E-3,2.177758701E-2
6.493941630E0,5.161922425E-3,-8.059054613E-3,2.177758701E-2
6.498992619E0,3.031922039E-3,-8.059054613E-3,1.964758709E-2
6.504043661E0,-4.423077684E-3,-6.994054653E-3,1.751758531E-2
6.509094703E0,-1.294307783E-2,-1.018905547E-2,1.645258628E-2
6.514147047E0,-1.933307946E-2,-1.338405535E-2,1.219258644E-2
6.519198088E0,-2.572307736E-2,-1.657905430E-2,1.006258652E-2
6.524249130E0,-3.317807987E-2,-1.657905430E-2,7.932586595E-3
6.529300172E0,-3.743807971E-2,-1.338405535E-2,1.006258652E-2
6.534351213E0,-3.956807777E-2,-4.864055198E-3,1.112758648E-2
6.539402203E0,-4.063307866E-2,2.590944991E-3,1.538758632E-2
6.544450119E0,-4.063307866E-2,1.004594564E-2,1.538758632E-2
6.549501161E0,-3.743807971E-2,1.324094459E-2,1.325758640E-2
6.554552203E0,-3.211307898E-2,1.111094467E-2,8.997586556E-3
6.559603192E0,-2.785307914E-2,7.915944792E-3,1.542586018E-3
6.564654234E0,-2.785307914E-2,2.590944991E-3,-3.782414133E-3
6.569705276E0,-2.572307736E-2,4.609450698E-4,-4.847413860E-3
6.574816734E0,-2.465807647E-2,-1.669054851E-3,-1.652413979E-3
6.579867776E0,-2.359307930E-2,4.720944911E-3,2.607585862E-3
6.584918817E0,-2.039807662E-2,1.324094459E-2,4.737586249E-3
6.589969859E0,-1.826807857E-2,1.643594541E-2,7.932586595E-3
6.595020901E0,-1.720307767E-2,1.537094545E-2,5.802586209E-3
6.600071890E0,-1.507307868E-2,1.324094459E-2,6.867586169E-3
6.605048349E0,-1.507307868E-2,1.324094459E-2,7.932586595E-3
6.610099390E0,-1.400807779E-2,1.217594463E-2,8.997586556E-3
6.615150432E0,-1.081307791E-2,1.217594463E-2,1.112758648E-2
6.620201474E0,-9.748077951E-3,6.850944832E-3,1.006258652E-2
6.625252515E0,-7.618078031E-3,2.590944991E-3,6.867586169E-3
6.630303505E0,-6.553078070E-3,-2.734054811E-3,4.737586249E-3
6.635357203E0,-8.683077991E-3,-6.994054653E-3,4.775859998E-4
6.640408244E0,-1.187807787E-2,-9.124054573E-3,-6.977413781E-3
6.645459286E0,-1.400807779E-2,-5.929054692E-3,-1.336741354E-2
6.650510328E0,-1.826807857E-2,4.609450698E-4,-1.549741346E-2
6.655561369E0,-1.933307946E-2,3.655944951E-3,-1.230241358E-2
6.660612359E0,-2.146307752E-2,3.655944951E-3,-9.107413702E-3
6.665675849E0,-2.465807647E-2,-6.040551234E-4,-6.977413781E-3
6.670726890E0,-2.146307752E-2,-3.799055237E-3,-5.912413821E-3
6.675777932E0,-1.826807857E-2,-2.734054811E-3,-5.912413821E-3
6.680828922E0,-1.187807787E-2,-2.734054811E-3,-2.717413940E-3
6.685879963E0,-1.228077803E-3,4.609450698E-4,-1.652413979E-3
6.690931005E0,8.356922306E-3,5.785944872E-3,2.607585862E-3
6.695974182E0,2.007192373E-2,1.217594463E-2,5.802586209E-3
6.701025224E0,2.859192342E-2,1.963094436E-2,4.737586249E-3
6.706076265E0,3.817692026E-2,2.389094420E-2,-5.874139606E-4
6.711127255E0,4.030692205E-2,2.815094590E-2,-3.782414133E-3
6.716178297E0,3.924192116E-2,2.921594493E-2,-5.912413821E-3
6.721229338E0,3.604692221E-2,2.708594501E-2,-5.912413821E-3
6.726271994E0,3.178692237E-2,2.176094428E-2,1.542586018E-3
6.731322984E0,2.646192163E-2,1.111094467E-2,5.802586209E-3
6.736374026E0,1.368192211E-2,4.609450698E-4,6.867586169E-3
6.741425067E0,-1.630779589E-4,-1.125405543E-2,1.542586018E-3
6.746476109E0,-1.294307783E-2,-1.764405519E-2,-1.017241366E-2
6.751527151E0,-2.998307720E-2,-1.977405511E-2,-1.975741424E-2
6.756603765E0,-4.382807761E-2,-1.657905430E-2,-2.721241303E-2
6.761654807E0,-5.128308013E-2,-9.124054573E-3,-3.466741368E-2
6.766705849E0,-5.660807714E-2,2.590944991E-3,-3.360241279E-2
6.771756890E0,-5.554307997E-2,1.856594533E-2,-2.614741400E-2
6.776807932E0,-4.808807746E-2,3.560594469E-2,-1.762741432E-2
6.781858922E0,-3.850308061E-2,4.519094527E-2,-4.847413860E-3
6.786874755E0,-2.359307930E-2,5.903594196E-2,5.802586209E-3
6.791925744E0,-4.423077684E-3,6.968594342E-2,1.325758640E-2
6.796976786E0,1.794192195E-2,7.501094788E-2,2.390758693E-2
6.802027880E0,3.817692026E-2,7.927094400E-2,3.455758467E-2
6.807078869E0,5.628192052E-2,7.927094400E-2,4.307758436E-2
6.812129911E0,7.119192183E-2,7.820595056E-2,4.627258703E-2
6.817206005E0,7.864692062E-2,7.181594521E-2,4.733758792E-2
6.822256994E0,8.184192330E-2,6.436094642E-2,4.201258719E-2
6.827308088E0,8.077692240E-2,5.477594584E-2,3.562258556E-2
6.832359078E0,7.545191795E-2,4.838594794E-2,2.710258588E-2
6.837410119E0,6.693191826E-2,3.986594826E-2,1.964758709E-2
6.842461161E0,5.415192246E-2,3.347594291E-2,1.325758640E-2
6.847521994E0,3.924192116E-2,2.602094412E-2,6.867586169E-3
6.852573036E0,2.326692268E-2,2.069594525E-2,-5.874139606E-4
6.857624078E0,1.155192219E-2,1.537094545E-2,-5.874139606E-4
6.862675119E0,-1.630779589E-4,1.217594463E-2,4.737586249E-3
6.867726161E0,-1.187807787E-2,6.850944832E-3,5.802586209E-3
6.872777151E0,-1.720307767E-2,-3.799055237E-3,1.112758648E-2
6.877832724E0,-2.146307752E-2,-8.059054613E-3,1.112758648E-2
6.882883765E0,-2.465807647E-2,-1.125405543E-2,1.112758648E-2
6.887934807E0,-2.252807841E-2,-1.231905539E-2,1.219258644E-2
6.892985849E0,-2.252807841E-2,-6.040551234E-4,1.219258644E-2
6.898036890E0,-1.933307946E-2,1.217594463E-2,1.645258628E-2
6.903087880E0,-1.294307783E-2,2.602094412E-2,2.071258612E-2
6.908104911E0,-5.488078110E-3,3.880094737E-2,2.603758685E-2
6.913155901E0,9.019220597E-4,4.945094138E-2,2.923258580E-2
6.918206942E0,6.226921920E-3,5.584094673E-2,3.242758662E-2
6.923257984E0,1.048692223E-2,5.477594584E-2,3.349258751E-2
6.928309026E0,1.368192211E-2,5.158094317E-2,3.349258751E-2
6.933360015E0,2.007192373E-2,4.625594616E-2,3.242758662E-2
6.938440380E0,2.752692252E-2,3.773594648E-2,3.029758669E-2
6.943491422E0,3.498192132E-2,2.921594493E-2,2.603758685E-2
6.948542463E0,4.350192100E-2,1.750094444E-2,2.177758701E-2
6.953593505E0,4.776192084E-2,8.980944753E-3,1.964758709E-2
6.958644547E0,4.989192262E-2,-6.040551234E-4,1.538758632E-2
6.963695536E0,5.202192068E-2,-9.124054573E-3,1.645258628E-2
6.968743765E0,5.415192246E-2,-1.125405543E-2,1.858258620E-2
6.973794807E0,5.415192246E-2,-4.864055198E-3,1.858258620E-2
6.978845849E0,5.095691979E-2,5.785944872E-3,1.645258628E-2
6.983896890E0,4.776192084E-2,8.980944753E-3,1.325758640E-2
6.988947932E0,3.604692221E-2,1.324094459E-2,1.432258636E-2
6.993998974E0,2.433192357E-2,2.389094420E-2,1.219258644E-2
6.999040484E0,9.421922266E-3,3.028094582E-2,1.432258636E-2
7.004091526E0,-7.618078031E-3,3.773594648E-2,1.538758632E-2
7.009142567E0,-2.359307930E-2,4.306094348E-2,1.538758632E-2
7.014193609E0,-4.063307866E-2,4.625594616E-2,1.432258636E-2
7.019244651E0,-5.767307803E-2,4.199594259E-2,1.219258644E-2
7.024295640E0,-7.258307934E-2,3.667094558E-2,1.112758648E-2
7.029342255E0,-8.323308080E-2,2.815094590E-2,5.802586209E-3
7.034393297E0,-8.855807781E-2,1.643594541E-2,2.607585862E-3
7.039444338E0,-8.749307692E-2,-1.669054851E-3,-5.874139606E-4
7.044495328E0,-8.110307902E-2,-1.870905422E-2,-3.782414133E-3
7.049546369E0,-6.938807666E-2,-3.255405277E-2,-9.107413702E-3
7.054597411E0,-5.447807908E-2,-4.213905334E-2,-1.869241334E-2
7.059647411E0,-3.743807971E-2,-5.172405392E-2,-2.295241319E-2
7.064698453E0,-1.826807857E-2,-5.491905659E-2,-2.401741408E-2
7.069749494E0,4.096921999E-3,-5.065905303E-2,-2.508241311E-2
7.074800484E0,2.007192373E-2,-4.107405245E-2,-2.295241319E-2
7.079851526E0,3.178692237E-2,-2.722905576E-2,-3.147241473E-2
7.084902567E0,3.178692237E-2,-1.444905438E-2,-3.786241263E-2
7.089952203E0,2.965692058E-2,-1.018905547E-2,-4.531741515E-2
7.095003244E0,2.220192179E-2,-8.059054613E-3,-5.703241378E-2
7.100054286E0,7.291921880E-3,-5.929054692E-3,-6.448741257E-2
7.105105276E0,-1.081307791E-2,-1.018905547E-2,-7.300741225E-2
7.110156369E0,-2.998307720E-2,-1.231905539E-2,-8.259241283E-2
7.115207359E0,-4.382807761E-2,-2.083905414E-2,-8.578741550E-2
7.120253140E0,-5.660807714E-2,-2.296905592E-2,-8.898241073E-2
7.125304078E0,-6.619308144E-2,-1.764405519E-2,-9.324241430E-2
7.130355067E0,-7.045307755E-2,-1.231905539E-2,-9.750241041E-2
7.135406005E0,-6.619308144E-2,-5.929054692E-3,-9.643741697E-2
7.140456994E0,-5.341307819E-2,-3.799055237E-3,-9.537241608E-2
7.145507932E0,-3.637307882E-2,4.609450698E-4,-9.430741519E-2
7.150585067E0,-1.720307767E-2,7.915944792E-3,-9.217741340E-2
7.155635953E0,6.226921920E-3,1.324094459E-2,-9.004741162E-2
7.160686942E0,2.646192163E-2,1.430594455E-2,-9.111241251E-2
7.165737880E0,4.350192100E-2,1.324094459E-2,-9.324241430E-2
7.170788817E0,5.841192231E-2,1.750094444E-2,-9.750241041E-2
7.175839807E0,7.012692094E-2,2.069594525E-2,-9.963241220E-2
7.180881057E0,7.758191973E-2,1.750094444E-2,-1.017624140E-1
7.185931994E0,7.971192151E-2,1.856594533E-2,-1.006974131E-1
7.190982932E0,8.184192330E-2,1.963094436E-2,-1.017624140E-1
7.196033869E0,7.864692062E-2,2.389094420E-2,-1.028274149E-1
7.201084807E0,7.545191795E-2,2.602094412E-2,-1.060224101E-1
7.206135797E0,7.012692094E-2,2.495594509E-2,-1.092174128E-1
7.211178557E0,6.160692126E-2,1.856594533E-2,-1.166724116E-1
7.216229547E0,5.521691963E-2,1.430594455E-2,-1.241274104E-1
7.221280484E0,5.308692157E-2,7.915944792E-3,-1.294524223E-1
7.226331422E0,4.989192262E-2,5.785944872E-3,-1.326474249E-1
7.231382359E0,4.669691995E-2,1.004594564E-2,-1.390374154E-1
7.236433349E0,4.882692173E-2,6.850944832E-3,-1.443624198E-1
7.241490901E0,4.989192262E-2,2.590944991E-3,-1.507524252E-1
7.246541838E0,4.563192278E-2,3.655944951E-3,-1.582074165E-1
7.251592776E0,4.669691995E-2,1.111094467E-2,-1.645974219E-1
7.256643765E0,4.243692011E-2,1.856594533E-2,-1.699224263E-1
7.261694703E0,3.285191953E-2,2.069594525E-2,-1.752474159E-1
7.266745640E0,2.220192179E-2,2.495594509E-2,-1.763124168E-1
7.271786942E0,8.356922306E-3,2.921594493E-2,-1.731174141E-1
7.276837880E0,-8.683077991E-3,3.241094574E-2,-1.699224263E-1
7.281888817E0,-2.252807841E-2,2.921594493E-2,-1.645974219E-1
7.286939807E0,-3.211307898E-2,2.176094428E-2,-1.582074165E-1
7.291990744E0,-3.743807971E-2,1.963094436E-2,-1.539474279E-1
7.297041682E0,-3.743807971E-2,1.324094459E-2,-1.496874243E-1
7.302088765E0,-3.637307882E-2,1.004594564E-2,-1.486224234E-1
7.307139703E0,-3.104807809E-2,4.720944911E-3,-1.528824270E-1
7.312190692E0,-2.252807841E-2,-5.929054692E-3,-1.592724174E-1
7.317241682E0,-1.187807787E-2,-1.657905430E-2,-1.699224263E-1
7.322292567E0,-1.630779589E-4,-1.870905422E-2,-1.784424186E-1
7.327343557E0,8.356922306E-3,-1.125405543E-2,-1.880274266E-1
7.332393661E0,1.794192195E-2,7.915944792E-3,-1.933524162E-1
7.337444599E0,2.220192179E-2,2.495594509E-2,-1.965474188E-1
7.342495588E0,2.326692268E-2,4.306094348E-2,-1.965474188E-1
7.347546526E0,2.220192179E-2,5.158094317E-2,-1.965474188E-1
7.352597463E0,1.581192203E-2,5.158094317E-2,-1.933524162E-1
7.357648453E0,4.096921999E-3,5.477594584E-2,-1.880274266E-1
7.362701942E0,-7.618078031E-3,5.690594763E-2,-1.869624257E-1
7.367752880E0,-2.359307930E-2,5.051594228E-2,-1.858974248E-1
7.372803869E0,-4.063307866E-2,3.667094558E-2,-1.858974248E-1
7.377854807E0,-5.660807714E-2,1.963094436E-2,-1.869624257E-1
7.382905744E0,-6.938807666E-2,4.609450698E-4,-1.869624257E-1
7.387956734E0,-8.110307902E-2,-1.018905547E-2,-1.837674230E-1
7.393010276E0,-8.962307870E-2,-2.616405487E-2,-1.752474159E-1
7.398061213E0,-9.281808138E-2,-3.894405812E-2,-1.667274237E-1
7.403112151E0,-9.601307660E-2,-5.065905303E-2,-1.571424156E-1
7.408163140E0,-9.601307660E-2,-5.598405749E-2,-1.507524252E-1
7.413214078E0,-9.814307839E-2,-5.811405182E-2,-1.432974190E-1
7.418265015E0,-1.013380811E-1,-6.024405360E-2,-1.369074285E-1
7.423315484E0,-1.013380811E-1,-5.811405182E-2,-1.294524223E-1
7.428366422E0,-9.814307839E-2,-4.852905869E-2,-1.188024133E-1
7.433417359E0,-9.601307660E-2,-3.148905188E-2,-1.060224101E-1
7.438468349E0,-8.962307870E-2,-1.764405519E-2,-9.643741697E-2
7.443519286E0,-8.216807991E-2,-2.734054811E-3,-9.004741162E-2
7.448570224E0,-7.577808201E-2,1.004594564E-2,-9.004741162E-2
7.453622619E0,-6.832307577E-2,1.217594463E-2,-9.643741697E-2
7.458673557E0,-5.873807892E-2,1.217594463E-2,-1.060224101E-1
7.463724494E0,-5.128308013E-2,7.915944792E-3,-1.124124154E-1
7.468775484E0,-4.276308045E-2,-4.864055198E-3,-1.134774163E-1
7.473826474E0,-2.998307720E-2,-1.870905422E-2,-1.049574167E-1
7.478877411E0,-1.720307767E-2,-3.468405455E-2,-9.111241251E-2
7.483920588E0,-3.358077724E-3,-4.746405780E-2,-7.833241671E-2
7.488971526E0,7.291921880E-3,-5.598405749E-2,-6.768241525E-2
7.494022515E0,1.794192195E-2,-6.663405150E-2,-5.916241556E-2
7.499073453E0,2.326692268E-2,-7.302405685E-2,-5.490241200E-2
7.504124390E0,2.539692074E-2,-8.260904998E-2,-4.957741499E-2
7.509175380E0,2.220192179E-2,-9.112904966E-2,-3.999241441E-2
7.514226213E0,1.794192195E-2,-9.858405590E-2,-2.401741408E-2
7.519277151E0,1.048692223E-2,-1.039090529E-1,-6.977413781E-3
7.524328140E0,4.096921999E-3,-1.092340499E-1,1.112758648E-2
7.529379078E0,-2.293077996E-3,-1.166890562E-1,2.923258580E-2
7.534430015E0,-4.423077684E-3,-1.230790541E-1,4.733758792E-2
7.539481005E0,-3.358077724E-3,-1.177540496E-1,6.118258461E-2
7.544564390E0,-3.358077724E-3,-1.134940535E-1,7.076758891E-2
7.549615328E0,-1.630779589E-4,-1.092340499E-1,7.609258592E-2
7.554666265E0,9.019220597E-4,-9.964905679E-2,7.822258770E-2
7.559717203E0,9.019220597E-4,-8.260904998E-2,8.035258949E-2
7.564768192E0,1.966922078E-3,-6.450404972E-2,8.780758828E-2
7.569819130E0,3.031922039E-3,-5.172405392E-2,9.526258707E-2
7.574844026E0,4.096921999E-3,-4.213905334E-2,1.069775894E-1
7.579894963E0,8.356922306E-3,-3.894405812E-2,1.144325882E-1
7.584945901E0,1.368192211E-2,-3.042405657E-2,1.176275834E-1
7.589996890E0,1.794192195E-2,-3.255405277E-2,1.186925843E-1
7.595047828E0,2.646192163E-2,-3.894405812E-2,1.123025864E-1
7.600098765E0,3.711191937E-2,-4.959405214E-2,1.048475876E-1
7.605156317E0,4.350192100E-2,-5.917905271E-2,8.993758261E-2
7.610207307E0,4.989192262E-2,-7.089405507E-2,7.502758503E-2
7.615258192E0,5.415192246E-2,-7.941405475E-2,5.479258671E-2
7.620309182E0,5.521691963E-2,-8.686905354E-2,3.242758662E-2
7.625360119E0,4.669691995E-2,-8.473905176E-2,1.219258644E-2
7.630411057E0,3.924192116E-2,-8.154405653E-2,-5.912413821E-3
7.635458453E0,2.752692252E-2,-7.515405118E-2,-2.188741416E-2
7.640509390E0,1.261692215E-2,-7.089405507E-2,-3.679741547E-2
7.645560328E0,-2.293077996E-3,-6.663405150E-2,-4.531741515E-2
7.650611317E0,-1.720307767E-2,-6.769905239E-2,-5.383741483E-2
7.655662255E0,-3.743807971E-2,-7.302405685E-2,-5.596741289E-2
7.660713192E0,-5.128308013E-2,-8.473905176E-2,-5.596741289E-2
7.665756474E0,-6.193307787E-2,-8.580405265E-2,-5.277241394E-2
7.670807411E0,-7.045307755E-2,-8.047905564E-2,-4.957741499E-2
7.675858401E0,-7.684307545E-2,-7.089405507E-2,-4.425241426E-2
7.680909338E0,-7.897307724E-2,-5.065905303E-2,-3.466741368E-2
7.685960328E0,-7.684307545E-2,-2.829405479E-2,-2.508241311E-2
7.691011265E0,-7.258307934E-2,-6.994054653E-3,-8.042413741E-3
7.696061369E0,-6.619308144E-2,4.720944911E-3,6.867586169E-3
7.701112307E0,-5.234807730E-2,1.004594564E-2,2.390758693E-2
7.706163297E0,-3.637307882E-2,1.537094545E-2,4.201258719E-2
7.711214234E0,-1.933307946E-2,1.537094545E-2,5.692258477E-2
7.716265172E0,-1.228077803E-3,2.282594517E-2,7.076758891E-2
7.721316161E0,2.007192373E-2,2.602094412E-2,8.780758828E-2
7.726379963E0,4.456692189E-2,2.921594493E-2,1.037825868E-1
7.731430901E0,6.586692482E-2,3.454094380E-2,1.165625826E-1
7.736481838E0,8.077692240E-2,3.880094737E-2,1.261475831E-1
7.741532828E0,9.462191910E-2,3.986594826E-2,1.240175888E-1
7.746583765E0,1.052719206E-1,4.093094170E-2,1.218875870E-1
7.751634755E0,1.084669232E-1,4.093094170E-2,1.186925843E-1
7.756699338E0,1.074019223E-1,3.454094380E-2,1.218875870E-1
7.761750276E0,1.031419188E-1,2.708594501E-2,1.325375736E-1
7.766801265E0,1.020769179E-1,1.430594455E-2,1.410575807E-1
7.771852203E0,9.781692177E-2,5.785944872E-3,1.506425738E-1
7.776903140E0,9.568691999E-2,6.850944832E-3,1.602275819E-1
7.781954130E0,9.568691999E-2,3.655944951E-3,1.666175723E-1
7.787002359E0,9.568691999E-2,4.720944911E-3,1.708775759E-1
7.792053297E0,9.568691999E-2,3.655944951E-3,1.772675812E-1
7.797104286E0,9.994692355E-2,-6.040551234E-4,1.836575717E-1
7.802155224E0,1.010119244E-1,-6.994054653E-3,1.932425797E-1
7.807206213E0,1.042069197E-1,-1.764405519E-2,2.060225755E-1
7.812257151E0,1.042069197E-1,-2.296905592E-2,2.177375853E-1
7.817291422E0,1.010119244E-1,-2.190405503E-2,2.273225784E-1
7.822342411E0,9.462191910E-2,-1.444905438E-2,2.315825820E-1
7.827393349E0,8.716692030E-2,-2.734054811E-3,2.315825820E-1
7.832444286E0,7.971192151E-2,3.655944951E-3,2.251925766E-1
7.837495224E0,7.332192361E-2,3.655944951E-3,2.156075835E-1
7.842546213E0,6.799691916E-2,-6.994054653E-3,2.038925737E-1
7.847604390E0,6.373692304E-2,-2.935905568E-2,1.868525743E-1
7.852655380E0,5.841192231E-2,-6.556905061E-2,1.602275819E-1
7.857706369E0,5.521691963E-2,-1.113640517E-1,1.282775849E-1
7.862757255E0,4.882692173E-2,-1.582240611E-1,9.313258529E-2
7.867808244E0,4.882692173E-2,-1.997590661E-1,5.905258656E-2
7.872859234E0,4.776192084E-2,-2.231890559E-1,2.710258588E-2
7.877915015E0,4.776192084E-2,-2.402290553E-1,-5.874139606E-4
7.882965953E0,5.095691979E-2,-2.476840466E-1,-1.975741424E-2
7.888016942E0,5.521691963E-2,-2.444890589E-1,-3.040741384E-2
7.893067880E0,6.054192036E-2,-2.434240580E-1,-3.040741384E-2
7.898118817E0,6.906192005E-2,-2.359690666E-1,-3.040741384E-2
7.903169807E0,7.651691884E-2,-2.136040628E-1,-3.147241473E-2
7.908234703E0,7.758191973E-2,-1.954990625E-1,-3.679741547E-2
7.913285640E0,7.332192361E-2,-1.773940623E-1,-4.638241231E-2
7.918336630E0,6.373692304E-2,-1.571590602E-1,-5.809741467E-2
7.923387567E0,4.776192084E-2,-1.390540600E-1,-5.916241556E-2
7.928438505E0,3.178692237E-2,-1.241440549E-1,-5.277241394E-2
7.933489494E0,1.261692215E-2,-1.102990508E-1,-3.679741547E-2
7.938537411E0,-8.683077991E-3,-9.006405622E-2,-1.443241350E-2
7.943588401E0,-2.891807631E-2,-7.089405507E-2,1.006258652E-2
7.948639338E0,-4.595807940E-2,-5.172405392E-2,4.094758630E-2
7.953690276E0,-5.447807908E-2,-2.829405479E-2,7.289758325E-2
7.958741213E0,-5.980307981E-2,-6.040551234E-4,1.027175859E-1
7.963792203E0,-5.767307803E-2,3.560594469E-2,1.346675754E-1
7.968811578E0,-4.276308045E-2,7.714094967E-2,1.612925828E-1
7.973862567E0,-1.826807857E-2,1.250659376E-1,1.836575717E-1
7.978913557E0,1.900692284E-2,1.740559340E-1,2.049575746E-1
7.983964494E0,6.586692482E-2,2.166559398E-1,2.262575775E-1
7.989015432E0,1.180519238E-1,2.549959421E-1,2.432975769E-1
7.994066369E0,1.670419276E-1,3.018559515E-1,2.539475858E-1
7.999144807E0,2.149669230E-1,3.370009661E-1,2.656625807E-1
8.004195744E0,2.607619166E-1,3.561709523E-1,2.709876001E-1
8.009246734E0,2.991019189E-1,3.753409684E-1,2.763125896E-1
8.014297672E0,3.257269263E-1,3.977059424E-1,2.763125896E-1
8.019348661E0,3.374419212E-1,4.009009600E-1,2.656625807E-1
8.024399599E0,3.353119195E-1,3.817309439E-1,2.464925796E-1
8.029443088E0,3.150769174E-1,3.252859414E-1,2.241275758E-1
8.034493974E0,2.841919065E-1,2.358259410E-1,2.017625719E-1
8.039544963E0,2.426569164E-1,1.250659376E-1,1.783325821E-1
8.044595901E0,1.904719174E-1,1.525945030E-3,1.538375765E-1
8.049646838E0,1.329619139E-1,-1.230790541E-1,1.282775849E-1
8.054697828E0,7.332192361E-2,-2.540740371E-1,1.059125885E-1
8.059725276E0,1.368192211E-2,-3.733540475E-1,8.674258739E-2
8.064776213E0,-3.956807777E-2,-4.649440348E-1,6.650758535E-2
8.069827203E0,-8.216807991E-2,-5.181940198E-1,4.946758598E-2
8.074878140E0,-1.173130795E-1,-5.309740305E-1,3.136258572E-2
8.079929130E0,-1.460680813E-1,-5.139340162E-1,1.219258644E-2
8.084980067E0,-1.631080806E-1,-4.745290577E-1,-9.107413702E-3
8.090049442E0,-1.705630720E-1,-4.159540534E-1,-2.508241311E-2
8.095100380E0,-1.705630720E-1,-3.520540595E-1,-3.253741562E-2
8.100151317E0,-1.620430797E-1,-2.711140513E-1,-2.508241311E-2
8.105202307E0,-1.439380795E-1,-1.827190667E-1,-9.107413702E-3
8.110253244E0,-1.205080822E-1,-9.006405622E-2,1.645258628E-2
8.115304182E0,-8.962307870E-2,2.590944991E-3,4.520758614E-2
8.120344963E0,-5.447807908E-2,8.885594457E-2,7.502758503E-2
8.125395901E0,-1.507307868E-2,1.570159346E-1,1.016525850E-1
8.130446890E0,2.859192342E-2,1.985509396E-1,1.250825822E-1
8.135497828E0,7.012692094E-2,2.145259380E-1,1.399925798E-1
8.140548817E0,1.127269194E-1,2.102659345E-1,1.421225816E-1
8.145599755E0,1.531969160E-1,1.921609342E-1,1.378625780E-1
8.150653922E0,1.872769147E-1,1.729909331E-1,1.250825822E-1
8.155704859E0,2.181619257E-1,1.580809355E-1,9.952258319E-2
8.160755849E0,2.383969277E-1,1.495609432E-1,6.863758713E-2
8.165806786E0,2.522419095E-1,1.431709379E-1,2.923258580E-2
8.170857776E0,2.565019131E-1,1.346509457E-1,-1.123741362E-2
8.175908713E0,2.501119375E-1,1.165459454E-1,-5.596741289E-2
8.180964390E0,2.383969277E-1,9.098594636E-2,-9.111241251E-2
8.186015328E0,2.192269266E-1,5.690594763E-2,-1.177374125E-1
8.191066317E0,1.979269236E-1,2.602094412E-2,-1.347774267E-1
8.196117307E0,1.787569225E-1,-1.669054851E-3,-1.347774267E-1
8.201168244E0,1.606519222E-1,-2.296905592E-2,-1.326474249E-1
8.206219234E0,1.468069255E-1,-3.894405812E-2,-1.188024133E-1
8.211281630E0,1.350919157E-1,-5.811405182E-2,-1.017624140E-1
8.216332567E0,1.297669262E-1,-6.663405150E-2,-8.685241640E-2
8.221383557E0,1.287019253E-1,-6.130905449E-2,-6.555241346E-2
8.226434547E0,1.318969280E-1,-4.213905334E-2,-4.744741321E-2
8.231485484E0,1.372219175E-1,-1.125405543E-2,-3.360241279E-2
8.236536474E0,1.404169202E-1,2.495594509E-2,-2.082241327E-2
8.241564494E0,1.425469220E-1,6.010094285E-2,-1.230241358E-2
8.246615432E0,1.414819211E-1,8.885594457E-2,-5.874139606E-4
8.251666422E0,1.382869184E-1,1.080259457E-1,7.932586595E-3
8.256717411E0,1.297669262E-1,1.197409481E-1,1.325758640E-2
8.261768349E0,1.169869229E-1,1.197409481E-1,1.432258636E-2
8.266819338E0,1.042069197E-1,1.176109463E-1,1.006258652E-2
8.271879182E0,9.036192298E-2,1.037659496E-1,3.672586055E-3
8.276930172E0,7.864692062E-2,8.566094935E-2,-1.549741346E-2
8.281981109E0,7.012692094E-2,6.968594342E-2,-4.105741531E-2
8.287032047E0,6.160692126E-2,5.264594406E-2,-7.300741225E-2
8.292083036E0,5.308692157E-2,2.921594493E-2,-1.092174128E-1
8.297133974E0,4.563192278E-2,-1.669054851E-3,-1.443624198E-1
8.302186161E0,4.137192294E-2,-3.148905188E-2,-1.752474159E-1
8.307237099E0,3.498192132E-2,-5.491905659E-2,-2.040024251E-1
8.312288088E0,3.072192147E-2,-6.982905418E-2,-2.199774235E-1
8.317339026E0,3.178692237E-2,-7.302405685E-2,-2.231724262E-1
8.322390015E0,3.072192147E-2,-7.195905596E-2,-2.221074253E-1
8.327440953E0,3.498192132E-2,-5.704905838E-2,-2.146524191E-1
8.332496578E0,3.924192116E-2,-3.148905188E-2,-2.071974277E-1
8.337547515E0,3.711191937E-2,-6.994054653E-3,-2.082624286E-1
8.342598505E0,3.285191953E-2,1.324094459E-2,-2.093274146E-1
8.347649442E0,2.859192342E-2,3.134594485E-2,-2.071974277E-1
8.352700432E0,2.326692268E-2,4.838594794E-2,-2.103924155E-1
8.357751369E0,1.474692207E-2,6.116594374E-2,-2.082624286E-1
8.362795536E0,1.048692223E-2,7.501094788E-2,-2.008074224E-1
8.367846474E0,6.226921920E-3,8.246594667E-2,-1.944174170E-1
8.372897463E0,9.019220597E-4,8.033594489E-2,-1.869624257E-1
8.377948401E0,-3.358077724E-3,7.288094610E-2,-1.890924275E-1
8.382999390E0,-8.683077991E-3,5.903594196E-2,-1.986774206E-1
8.388050328E0,-1.613807678E-2,4.306094348E-2,-2.114574164E-1
8.393091994E0,-2.039807662E-2,2.282594517E-2,-2.199774235E-1
8.398142932E0,-2.465807647E-2,-1.669054851E-3,-2.274324149E-1
8.403193922E0,-2.785307914E-2,-2.935905568E-2,-2.231724262E-1
8.408244911E0,-2.572307736E-2,-5.172405392E-2,-2.178474218E-1
8.413295849E0,-2.252807841E-2,-6.769905239E-2,-2.082624286E-1
8.418346838E0,-1.613807678E-2,-6.769905239E-2,-2.018724233E-1
8.423405640E0,-9.748077951E-3,-6.769905239E-2,-1.965474188E-1
8.428456578E0,3.031922039E-3,-7.302405685E-2,-1.912224144E-1
8.433507567E0,1.474692207E-2,-7.408905029E-2,-1.890924275E-1
8.438558557E0,2.539692074E-2,-7.089405507E-2,-1.869624257E-1
8.443609494E0,3.924192116E-2,-6.130905449E-2,-1.773774177E-1
8.448660484E0,5.202192068E-2,-5.172405392E-2,-1.667274237E-1
8.453718349E0,6.586692482E-2,-4.746405780E-2,-1.518174261E-1
8.458769286E0,7.758191973E-2,-4.107405245E-2,-1.358424276E-1
8.463820276E0,9.142692387E-2,-4.000905156E-2,-1.230624169E-1
8.468871213E0,9.994692355E-2,-4.533405602E-2,-1.156074107E-1
8.473922203E0,1.052719206E-1,-5.491905659E-2,-1.134774163E-1
8.478973140E0,1.084669232E-1,-7.195905596E-2,-1.124124154E-1
8.484019755E0,1.084669232E-1,-9.538905323E-2,-1.145424172E-1
8.489070692E0,1.042069197E-1,-1.198840514E-1,-1.219974160E-1
8.494121682E0,1.010119244E-1,-1.401190609E-1,-1.251924187E-1
8.499172619E0,9.781692177E-2,-1.550290585E-1,-1.283874214E-1
8.504223609E0,9.036192298E-2,-1.560940593E-1,-1.262574196E-1
8.509274547E0,9.249192476E-2,-1.379890591E-1,-1.198674142E-1
8.514332307E0,1.063369215E-1,-1.017790511E-1,-1.134774163E-1
8.519383244E0,1.233769208E-1,-5.598405749E-2,-1.070874110E-1
8.524434234E0,1.478719264E-1,-4.864055198E-3,-1.006974131E-1
8.529485172E0,1.766269207E-1,4.093094170E-2,-8.898241073E-2
8.534536161E0,2.021869272E-1,8.459594846E-2,-7.726741582E-2
8.539587099E0,2.234869152E-1,1.069609448E-1,-7.407241315E-2
8.544638505E0,2.288119197E-1,1.005709469E-1,-7.407241315E-2
8.549689442E0,2.234869152E-1,8.459594846E-2,-7.833241671E-2
8.554740432E0,2.064469159E-1,6.862094998E-2,-8.365741372E-2
8.559791369E0,1.766269207E-1,5.584094673E-2,-8.685241640E-2
8.564842359E0,1.457419246E-1,4.199594259E-2,-8.898241073E-2
8.569893297E0,1.042069197E-1,3.667094558E-2,-1.017624140E-1
8.574934026E0,5.734692141E-2,5.158094317E-2,-1.219974160E-1
8.579984963E0,7.291921880E-3,6.755594909E-2,-1.528824270E-1
8.585036005E0,-4.702308029E-2,7.927094400E-2,-1.827024221E-1
8.590086942E0,-1.045330763E-1,7.288094610E-2,-2.114574164E-1
8.595137880E0,-1.545880735E-1,5.797094852E-2,-2.295624167E-1
8.600188869E0,-1.950580776E-1,3.241094574E-2,-2.370174229E-1
8.605249078E0,-2.270080745E-1,6.850944832E-3,-2.402124256E-1
8.610299963E0,-2.461780757E-1,-1.870905422E-2,-2.370174229E-1
8.615350953E0,-2.504380643E-1,-4.107405245E-2,-2.316924185E-1
8.620401942E0,-2.376580834E-1,-6.556905061E-2,-2.263674140E-1
8.625452880E0,-2.131630778E-1,-8.260904998E-2,-2.242374271E-1
8.630503869E0,-1.801480800E-1,-9.325905144E-2,-2.221074253E-1
8.635551213E0,-1.407430768E-1,-9.964905679E-2,-2.242374271E-1
8.640602151E0,-1.002730802E-1,-8.899905533E-2,-2.306274176E-1
8.645653140E0,-6.299807876E-2,-6.876405329E-2,-2.402124256E-1
8.650704078E0,-3.850308061E-2,-4.320405424E-2,-2.540574074E-1
8.655755067E0,-2.785307914E-2,-1.977405511E-2,-2.689674199E-1
8.660806005E0,-2.891807631E-2,4.609450698E-4,-2.774873972E-1
8.665857463E0,-3.743807971E-2,2.069594525E-2,-2.806824148E-1
8.670908401E0,-5.447807908E-2,4.732094705E-2,-2.838774025E-1
8.675959390E0,-7.364808023E-2,8.033594489E-2,-2.828124166E-1
8.681010328E0,-9.175308049E-2,1.112209484E-1,-2.796173990E-1
8.686061317E0,-1.087930799E-1,1.293259412E-1,-2.774873972E-1
8.691112255E0,-1.268980801E-1,1.389109343E-1,-2.753573954E-1
8.696164286E0,-1.418080777E-1,1.484959424E-1,-2.721624076E-1
8.701215224E0,-1.503280848E-1,1.516909450E-1,-2.529923916E-1
8.706266213E0,-1.513930857E-1,1.548859328E-1,-2.263674140E-1
8.711317151E0,-1.439380795E-1,1.559509337E-1,-1.933524162E-1
8.716368140E0,-1.290280819E-1,1.602109373E-1,-1.635324210E-1
8.721419078E0,-1.024030820E-1,1.602109373E-1,-1.347774267E-1
8.726478244E0,-7.364808023E-2,1.612759382E-1,-1.134774163E-1
8.731529182E0,-4.063307866E-2,1.644709408E-1,-9.643741697E-2
8.736580172E0,-4.423077684E-3,1.666009426E-1,-8.365741372E-2
8.741631109E0,2.965692058E-2,1.655359417E-1,-7.300741225E-2
8.746682099E0,6.373692304E-2,1.655359417E-1,-6.235741451E-2
8.751733036E0,8.823192120E-2,1.623409390E-1,-5.596741289E-2
8.756764911E0,1.052719206E-1,1.623409390E-1,-4.744741321E-2
8.761815849E0,1.148569211E-1,1.570159346E-1,-4.105741531E-2
8.766866838E0,1.201819181E-1,1.399759352E-1,-3.466741368E-2
8.771917828E0,1.191169247E-1,1.218709499E-1,-2.508241311E-2
8.776968765E0,1.159219220E-1,1.144159436E-1,-1.762741432E-2
8.782019755E0,1.084669232E-1,1.048309505E-1,-1.549741346E-2
8.787076786E0,9.462191910E-2,9.524594992E-2,-1.443241350E-2
8.792127776E0,7.864692062E-2,9.205094725E-2,-1.656241342E-2
8.797178713E0,6.480192393E-2,9.524594992E-2,-1.656241342E-2
8.802229703E0,5.415192246E-2,9.844094515E-2,-1.336741354E-2
8.807280640E0,4.776192084E-2,1.037659496E-1,-1.230241358E-2
8.812331630E0,4.243692011E-2,1.080259457E-1,-1.230241358E-2
8.817405119E0,3.817692026E-2,1.112209484E-1,-1.017241366E-2
8.822456057E0,3.924192116E-2,1.058959439E-1,-1.336741354E-2
8.827507047E0,4.350192100E-2,9.205094725E-2,-1.549741346E-2
8.832558036E0,4.989192262E-2,7.288094610E-2,-1.656241342E-2
8.837608974E0,6.054192036E-2,6.223094463E-2,-1.975741424E-2
8.842659963E0,7.119192183E-2,5.903594196E-2,-2.188741416E-2
8.847712359E0,8.184192330E-2,5.051594228E-2,-2.295241319E-2
8.852763297E0,9.355691820E-2,4.838594794E-2,-2.188741416E-2
8.857814286E0,1.020769179E-1,4.838594794E-2,-1.762741432E-2
8.862865276E0,1.105969176E-1,4.732094705E-2,-1.017241366E-2
8.867916213E0,1.148569211E-1,4.838594794E-2,1.542586018E-3
8.872967203E0,1.137919202E-1,5.797094852E-2,8.997586556E-3
8.877988922E0,1.095319241E-1,7.288094610E-2,1.538758632E-2
8.883039911E0,1.010119244E-1,8.353094757E-2,1.964758709E-2
8.888090901E0,8.929692209E-2,8.779094368E-2,2.071258612E-2
8.893141838E0,7.225692272E-2,8.885594457E-2,1.964758709E-2
8.898192828E0,4.882692173E-2,7.501094788E-2,1.858258620E-2
8.903243765E0,2.646192163E-2,6.116594374E-2,1.858258620E-2
8.908317828E0,1.966922078E-3,4.838594794E-2,1.964758709E-2
8.913368765E0,-2.252807841E-2,3.347594291E-2,2.071258612E-2
8.918419755E0,-4.169807956E-2,2.389094420E-2,2.284258604E-2
8.923470692E0,-5.767307803E-2,1.750094444E-2,2.390758693E-2
8.928521630E0,-7.258307934E-2,1.004594564E-2,2.710258588E-2
8.933572619E0,-8.216807991E-2,-1.669054851E-3,3.562258556E-2
8.938623036E0,-8.429808170E-2,-9.124054573E-3,4.627258703E-2
8.943673974E0,-8.429808170E-2,-1.870905422E-2,5.372758582E-2
8.948724911E0,-7.897307724E-2,-2.616405487E-2,6.118258461E-2
8.953775901E0,-6.938807666E-2,-3.468405455E-2,6.650758535E-2
8.958826890E0,-5.660807714E-2,-4.639905691E-2,6.757258624E-2
8.963877828E0,-4.276308045E-2,-5.385405570E-2,6.437758356E-2
8.968927255E0,-2.359307930E-2,-5.598405749E-2,6.011758745E-2
8.973978192E0,-7.618078031E-3,-5.598405749E-2,5.479258671E-2
8.979029182E0,5.161922425E-3,-4.959405214E-2,4.946758598E-2
8.984080119E0,1.368192211E-2,-3.468405455E-2,4.414258525E-2
8.989131109E0,1.794192195E-2,-1.977405511E-2,4.201258719E-2
8.994182047E0,2.007192373E-2,-4.864055198E-3,4.307758436E-2
8.999231630E0,1.687692106E-2,1.111094467E-2,4.733758792E-2
9.004282567E0,1.261692215E-2,2.815094590E-2,5.159758776E-2
9.009333557E0,8.356922306E-3,4.625594616E-2,5.692258477E-2
9.014384547E0,3.031922039E-3,6.436094642E-2,6.224758551E-2
9.019435484E0,-4.423077684E-3,7.607594877E-2,6.331258267E-2
9.024486474E0,-5.488078110E-3,7.607594877E-2,5.798758566E-2
9.029543192E0,-8.683077991E-3,7.394594699E-2,4.520758614E-2
9.034594130E0,-8.683077991E-3,6.862094998E-2,3.136258572E-2
9.039645119E0,-6.553078070E-3,6.223094463E-2,1.964758709E-2
9.044696109E0,-1.630779589E-4,5.477594584E-2,1.538758632E-2
9.049747047E0,1.048692223E-2,4.306094348E-2,1.751758531E-2
9.054798036E0,2.539692074E-2,3.134594485E-2,2.284258604E-2
9.059836422E0,4.350192100E-2,1.643594541E-2,3.136258572E-2
9.064887359E0,6.160692126E-2,-3.799055237E-3,3.881758451E-2
9.069938349E0,8.290692419E-2,-2.829405479E-2,4.414258525E-2
9.074989286E0,1.052719206E-1,-5.491905659E-2,4.946758598E-2
9.080040276E0,1.265719235E-1,-7.941405475E-2,5.266258493E-2
9.085091213E0,1.478719264E-1,-9.538905323E-2,5.798758566E-2
9.090161994E0,1.606519222E-1,-1.028440520E-1,6.011758745E-2
9.095212932E0,1.638469249E-1,-1.007140502E-1,5.905258656E-2
9.100263922E0,1.595869213E-1,-9.538905323E-2,6.544258446E-2
9.105314911E0,1.563919187E-1,-9.006405622E-2,7.289758325E-2
9.110365849E0,1.510669142E-1,-9.538905323E-2,8.035258949E-2
9.115416838E0,1.436119229E-1,-1.039090529E-1,8.780758828E-2
9.120455224E0,1.308319271E-1,-1.177540496E-1,1.027175859E-1
9.125506265E0,1.180519238E-1,-1.326640546E-1,1.186925843E-1
9.130557307E0,1.052719206E-1,-1.486390680E-1,1.336025745E-1
9.135608349E0,9.781692177E-2,-1.624840647E-1,1.442525834E-1
9.140659390E0,9.249192476E-2,-1.752640605E-1,1.517075747E-1
9.145710432E0,9.142692387E-2,-1.901740581E-1,1.538375765E-1
9.150765953E0,9.462191910E-2,-1.954990625E-1,1.527725756E-1
9.155816994E0,9.994692355E-2,-1.976290643E-1,1.580975801E-1
9.160868036E0,1.105969176E-1,-1.816540658E-1,1.698125750E-1
9.165919078E0,1.265719235E-1,-1.326640546E-1,1.847225726E-1
9.170970119E0,1.425469220E-1,-6.024405360E-2,2.038925737E-1
9.176021161E0,1.585219204E-1,2.921594493E-2,2.262575775E-1
9.181053244E0,1.723669171E-1,1.325209439E-1,2.486225814E-1
9.186104286E0,1.862119138E-1,2.422159463E-1,2.763125896E-1
9.191155328E0,1.968619227E-1,3.593659401E-1,3.018725812E-1
9.196206369E0,2.043169141E-1,4.594759643E-1,3.231725991E-1
9.201257411E0,2.107069194E-1,5.297659636E-1,3.423425853E-1
9.206308453E0,2.107069194E-1,5.510659814E-1,3.583175838E-1
9.211361005E0,2.096419185E-1,5.265709758E-1,3.774875998E-1
9.216412047E0,2.075119168E-1,4.701259434E-1,3.955926001E-1
9.221463088E0,1.979269236E-1,3.945109546E-1,4.030475914E-1
9.226514130E0,1.755619198E-1,3.039859533E-1,3.870725930E-1
9.231565172E0,1.457419246E-1,1.953559369E-1,3.551225960E-1
9.236616213E0,1.095319241E-1,8.033594489E-2,3.135876060E-1
9.241667776E0,6.799691916E-2,-1.977405511E-2,2.645975947E-1
9.246718817E0,2.752692252E-2,-1.102990508E-1,2.113475800E-1
9.251769859E0,-1.081307791E-2,-1.837840676E-1,1.666175723E-1
9.256820901E0,-4.382807761E-2,-2.444890589E-1,1.367975771E-1
9.261871942E0,-7.471308112E-2,-2.956090569E-1,1.154975891E-1
9.266922984E0,-1.002730802E-1,-3.392740488E-1,9.419758618E-2
9.272013349E0,-1.300930828E-1,-3.776140511E-1,6.650758535E-2
9.277064390E0,-1.599130780E-1,-4.255390465E-1,2.710258588E-2
9.282115432E0,-2.014480829E-1,-4.787890315E-1,-2.827741392E-2
9.287166474E0,-2.557630837E-1,-5.341690183E-1,-9.004741162E-2
9.292217515E0,-3.271180689E-1,-5.938090682E-1,-1.560774148E-1
9.297268557E0,-4.037980735E-1,-6.406690478E-1,-2.178474218E-1
9.302295953E0,-4.815430641E-1,-6.747490168E-1,-2.647074163E-1
9.307346994E0,-5.518330932E-1,-6.726190448E-1,-2.913323939E-1
9.312398036E0,-6.093430519E-1,-6.310840249E-1,-2.977223992E-1
9.317449078E0,-6.508780718E-1,-5.533390641E-1,-2.828124166E-1
9.322500119E0,-6.721780896E-1,-4.606840312E-1,-2.476674169E-1
9.327551161E0,-6.721780896E-1,-3.467290401E-1,-1.976124197E-1
9.332576734E0,-6.466180682E-1,-2.263840586E-1,-1.283874214E-1
9.337627776E0,-5.944330692E-1,-1.092340499E-1,-4.851241410E-2
9.342678817E0,-5.177530646E-1,2.590944991E-3,3.988258541E-2
9.347729859E0,-4.250980914E-1,9.844094515E-2,1.304075718E-1
9.352780901E0,-3.228580654E-1,1.793809384E-1,2.134775817E-1
9.357831942E0,-2.163580805E-1,2.443459332E-1,2.816375792E-1
9.362890640E0,-1.109230816E-1,2.890759408E-1,3.348875940E-1
9.367941682E0,-8.683077991E-3,3.284809589E-1,3.679026067E-1
9.372992724E0,7.545191795E-2,3.529759645E-1,3.838776052E-1
9.378043765E0,1.436119229E-1,3.519109488E-1,3.838776052E-1
9.383094807E0,1.915369183E-1,3.135709465E-1,3.700326085E-1
9.388145849E0,2.192269266E-1,2.422159463E-1,3.476676047E-1
9.393203244E0,2.288119197E-1,1.421059370E-1,3.242375851E-1
9.398254286E0,2.192269266E-1,1.963094436E-2,2.976126075E-1
9.403305328E0,1.957969218E-1,-1.134940535E-1,2.720525861E-1
9.408356369E0,1.606519222E-1,-2.562040389E-1,2.454275787E-1
9.413407411E0,1.180519238E-1,-3.840040565E-1,2.188025713E-1
9.418458453E0,6.906192005E-2,-4.841140509E-1,1.932425797E-1
9.423506005E0,1.794192195E-2,-5.490790606E-1,1.676825732E-1
9.428557047E0,-3.317807987E-2,-5.778340697E-1,1.463825852E-1
9.433608088E0,-7.684307545E-2,-5.703790188E-1,1.261475831E-1
9.438659130E0,-1.162480786E-1,-5.405590534E-1,1.112375855E-1
9.443710172E0,-1.481980830E-1,-4.958290458E-1,9.845758975E-2
9.448761213E0,-1.705630720E-1,-4.415140450E-1,9.313258529E-2
9.453872724E0,-1.801480800E-1,-3.818740547E-1,8.674258739E-2
9.458923765E0,-1.844080836E-1,-3.126490414E-1,8.674258739E-2
9.463974807E0,-1.790830791E-1,-2.402290553E-1,8.993758261E-2
9.469025849E0,-1.663030833E-1,-1.688740551E-1,9.632758796E-2
9.474076890E0,-1.513930857E-1,-1.092340499E-1,1.037825868E-1
9.479127984E0,-1.311580837E-1,-5.811405182E-2,1.123025864E-1
9.484117359E0,-1.055980772E-1,-1.338405535E-2,1.186925843E-1
9.489168401E0,-7.684307545E-2,2.602094412E-2,1.197575852E-1
9.494219442E0,-4.915307835E-2,5.371094495E-2,1.154975891E-1
9.499270484E0,-1.826807857E-2,7.394594699E-2,1.091075838E-1
9.504321526E0,1.048692223E-2,9.311594814E-2,9.419758618E-2
9.509372567E0,3.604692221E-2,9.950594604E-2,7.928758860E-2
9.514411474E0,6.054192036E-2,1.048309505E-1,6.437758356E-2
9.519462515E0,8.077692240E-2,1.069609448E-1,5.266258493E-2
9.524513557E0,1.031419188E-1,1.133509502E-1,4.201258719E-2
9.529564599E0,1.244419217E-1,1.240009442E-1,2.816758677E-2
9.534615640E0,1.393519193E-1,1.314559430E-1,1.645258628E-2
9.539666682E0,1.542619169E-1,1.431709379E-1,3.672586055E-3
9.544718505E0,1.670419276E-1,1.559509337E-1,-1.017241366E-2
9.549769547E0,1.755619198E-1,1.687309444E-1,-1.762741432E-2
9.554820588E0,1.798219234E-1,1.804459393E-1,-2.401741408E-2
9.559871630E0,1.872769147E-1,1.932259351E-1,-2.401741408E-2
9.564922672E0,1.915369183E-1,2.060059458E-1,-2.188741416E-2
9.569973713E0,1.957969218E-1,2.198509425E-1,-2.827741392E-2
9.575035640E0,1.968619227E-1,2.262409329E-1,-3.786241263E-2
9.580086682E0,1.915369183E-1,2.241109461E-1,-5.170741305E-2
9.585137724E0,1.872769147E-1,2.187859416E-1,-6.874741614E-2
9.590188765E0,1.798219234E-1,2.081359327E-1,-8.365741372E-2
9.595239807E0,1.691719145E-1,1.910959333E-1,-9.643741697E-2
9.600290849E0,1.606519222E-1,1.740559340E-1,-1.060224101E-1
9.605347359E0,1.542619169E-1,1.538209468E-1,-1.166724116E-1
9.610398401E0,1.457419246E-1,1.314559430E-1,-1.337124258E-1
9.615449442E0,1.340269148E-1,1.058959439E-1,-1.528824270E-1
9.620500484E0,1.212469190E-1,7.607594877E-2,-1.720524281E-1
9.625551526E0,1.127269194E-1,5.158094317E-2,-1.890924275E-1
9.630602567E0,1.042069197E-1,3.560594469E-2,-2.029374242E-1
9.635665797E0,9.781692177E-2,3.134594485E-2,-2.135874182E-1
9.640716838E0,8.716692030E-2,3.773594648E-2,-2.242374271E-1
9.645767880E0,7.864692062E-2,4.625594616E-2,-2.370174229E-1
9.650818922E0,6.693191826E-2,5.477594584E-2,-2.444724143E-1
9.655869963E0,5.308692157E-2,5.264594406E-2,-2.487324178E-1
9.660921005E0,3.924192116E-2,4.199594259E-2,-2.487324178E-1
9.665937359E0,2.433192357E-2,2.602094412E-2,-2.444724143E-1
9.670988401E0,1.155192219E-2,7.915944792E-3,-2.380824238E-1
9.676039442E0,6.226921920E-3,-8.059054613E-3,-2.253024280E-1
9.681090484E0,7.291921880E-3,-2.083905414E-2,-2.146524191E-1
9.686141578E0,1.900692284E-2,-3.468405455E-2,-2.071974277E-1
9.691192567E0,4.137192294E-2,-4.639905691E-2,-2.050674260E-1
9.696248817E0,7.758191973E-2,-5.278905481E-2,-2.103924155E-1
9.701299859E0,1.137919202E-1,-4.639905691E-2,-2.167824209E-1
9.706350901E0,1.510669142E-1,-2.190405503E-2,-2.306274176E-1
9.711401994E0,1.904719174E-1,5.785944872E-3,-2.476674169E-1
9.716452984E0,2.256169170E-1,3.454094380E-2,-2.700324059E-1
9.721504026E0,2.533069253E-1,6.010094285E-2,-2.945274115E-1
9.726570849E0,2.746069133E-1,7.075094432E-2,-3.147624135E-1
9.731621890E0,2.884519100E-1,7.075094432E-2,-3.307374120E-1
9.736672932E0,2.884519100E-1,6.116594374E-2,-3.392574191E-1
9.741723974E0,2.831269205E-1,3.986594826E-2,-3.435173929E-1
9.746775015E0,2.767369151E-1,1.430594455E-2,-3.381924033E-1
9.751826057E0,2.650219202E-1,-1.338405535E-2,-3.307374120E-1
9.756877672E0,2.554369271E-1,-4.320405424E-2,-3.243474066E-1
9.761928713E0,2.447869182E-1,-7.834905386E-2,-3.232824206E-1
9.766979755E0,2.341369241E-1,-1.166890562E-1,-3.232824206E-1
9.772030797E0,2.245519161E-1,-1.550290585E-1,-3.275423944E-1
9.777081838E0,2.160319239E-1,-1.859140545E-1,-3.296723962E-1
9.782132880E0,2.043169141E-1,-2.018890679E-1,-3.296723962E-1
9.787174807E0,2.000569254E-1,-1.997590661E-1,-3.243474066E-1
9.792225849E0,1.957969218E-1,-1.816540658E-1,-3.126324117E-1
9.797276890E0,1.915369183E-1,-1.550290585E-1,-3.051774204E-1
9.802327932E0,1.894069165E-1,-1.294690669E-1,-3.009174168E-1
9.807378974E0,1.894069165E-1,-1.017790511E-1,-2.902674079E-1
9.812430015E0,1.915369183E-1,-7.302405685E-2,-2.785524130E-1
9.817465224E0,1.915369183E-1,-4.852905869E-2,-2.593823969E-1
9.822516265E0,1.926019192E-1,-2.296905592E-2,-2.359524220E-1
9.827567307E0,1.968619227E-1,2.590944991E-3,-2.050674260E-1
9.832618401E0,2.075119168E-1,3.134594485E-2,-1.709874272E-1
9.837669390E0,2.202919275E-1,7.075094432E-2,-1.390374154E-1
9.842720432E0,2.341369241E-1,1.069609448E-1,-1.070874110E-1
9.847796161E0,2.469169199E-1,1.474309415E-1,-8.046241105E-2
9.852847255E0,2.522419095E-1,1.847059429E-1,-5.490241200E-2
9.857898244E0,2.447869182E-1,2.187859416E-1,-4.105741531E-2
9.862949338E0,2.277469188E-1,2.390209436E-1,-4.744741321E-2
9.868000380E0,2.021869272E-1,2.294359356E-1,-6.342241168E-2
9.873051369E0,1.659769267E-1,2.006809413E-1,-8.685241640E-2
9.878088609E0,1.191169247E-1,1.495609432E-1,-1.166724116E-1
9.883139651E0,6.586692482E-2,1.005709469E-1,-1.464924216E-1
9.888190744E0,1.048692223E-2,4.093094170E-2,-1.763124168E-1
9.893241786E0,-4.276308045E-2,-2.722905576E-2,-2.018724233E-1
9.898292828E0,-9.068807960E-2,-9.219405055E-2,-2.189124227E-1
9.903343869E0,-1.279630810E-1,-1.443790644E-1,-2.348874211E-1
9.908413557E0,-1.513930857E-1,-1.901740581E-1,-2.476674169E-1
9.913464599E0,-1.588480771E-1,-2.146690637E-1,-2.583174109E-1
9.918515640E0,-1.556530744E-1,-2.189290673E-1,-2.657724023E-1
9.923566682E0,-1.375480741E-1,-2.178640664E-1,-2.764224112E-1
9.928617724E0,-1.162480786E-1,-2.029540539E-1,-2.881374061E-1
9.933668765E0,-9.388308227E-2,-1.848490536E-1,-2.945274115E-1
9.938719807E0,-6.086808071E-2,-1.614190638E-1,-3.030474186E-1
9.943770849E0,-2.678807825E-2,-1.273390651E-1,-3.094373941E-1
9.948821942E0,1.048692223E-2,-9.432405233E-2,-3.158273995E-1
9.953872984E0,4.669691995E-2,-5.704905838E-2,-3.232824206E-1
9.958924026E0,8.290692419E-2,-9.124054573E-3,-3.243474066E-1
9.963975067E0,1.105969176E-1,4.199594259E-2,-3.243474066E-1
9.969021422E0,1.340269148E-1,8.566094935E-2,-3.200874031E-1
9.974072463E0,1.542619169E-1,1.261309385E-1,-3.147624135E-1
9.979123505E0,1.638469249E-1,1.697959453E-1,-3.115673959E-1
9.984174547E0,1.627819240E-1,2.017459422E-1,-3.041124046E-1
9.989225588E0,1.510669142E-1,2.198509425E-1,-2.977223992E-1
9.994276630E0,1.297669262E-1,2.294359356E-1,-2.923974097E-1
9.999326786E0,1.020769179E-1,2.283709347E-1,-2.902674079E-1
1.000437783E1,6.373692304E-2,2.273059338E-1,-2.892023921E-1
1.000942887E1,1.794192195E-2,2.209159434E-1,-2.955923975E-1
1.001447991E1,-3.637307882E-2,2.113309354E-1,-3.030474186E-1
1.001953100E1,-9.707807750E-2,1.974859387E-1,-3.126324117E-1
1.002458199E1,-1.641730815E-1,1.825759411E-1,-3.243474066E-1
1.002962444E1,-2.323330790E-1,1.644709408E-1,-3.328674138E-1
1.003467543E1,-2.930380702E-1,1.453009397E-1,-3.360624015E-1
1.003972653E1,-3.473530710E-1,1.410409361E-1,-3.318023980E-1
1.004477752E1,-3.867580891E-1,1.463659406E-1,-3.190224171E-1
1.004982861E1,-4.165780842E-1,1.527559459E-1,-2.977223992E-1
1.005487965E1,-4.314880669E-1,1.559509337E-1,-2.668374181E-1
1.005991830E1,-4.272280931E-1,1.516909450E-1,-2.316924185E-1
1.006496934E1,-4.091230929E-1,1.399759352E-1,-1.944174170E-1
1.007002038E1,-3.771730661E-1,1.271959394E-1,-1.496874243E-1
1.007507142E1,-3.313780725E-1,1.112209484E-1,-1.092174128E-1
1.008012246E1,-2.770630717E-1,9.844094515E-2,-6.981241703E-2
1.008517350E1,-2.184880823E-1,9.418094903E-2,-3.040741384E-2
1.009024486E1,-1.599130780E-1,9.524594992E-2,1.112758648E-2
1.009529590E1,-9.814307839E-2,1.027009487E-1,4.946758598E-2
1.010034694E1,-3.956807777E-2,1.154809445E-1,8.674258739E-2
1.010539798E1,1.474692207E-2,1.325209439E-1,1.250825822E-1
1.011044903E1,6.373692304E-2,1.453009397E-1,1.612925828E-1
1.011550012E1,1.105969176E-1,1.623409390E-1,1.889825761E-1
1.012053252E1,1.542619169E-1,1.666009426E-1,2.188025713E-1
1.012558345E1,1.926019192E-1,1.580809355E-1,2.401025742E-1
1.013063439E1,2.245519161E-1,1.399759352E-1,2.614026070E-1
1.013568533E1,2.565019131E-1,1.176109463E-1,2.837675810E-1
1.014073621E1,2.809969187E-1,1.058959439E-1,3.018725812E-1
1.014578715E1,3.012319207E-1,1.058959439E-1,3.167825937E-1
1.015084512E1,3.150769174E-1,1.112209484E-1,3.274326026E-1
1.015589606E1,3.257269263E-1,1.229359433E-1,3.316926062E-1
1.016094699E1,3.278569281E-1,1.282609403E-1,3.316926062E-1
1.016599788E1,3.214669228E-1,1.293259412E-1,3.284975886E-1
1.017104882E1,3.076219261E-1,1.314559430E-1,3.221075833E-1
1.017609976E1,2.841919065E-1,1.303909421E-1,3.135876060E-1
1.018115538E1,2.607619166E-1,1.250659376E-1,3.050675988E-1
