"Time (s)","Gyroscope x (rad/s)","Gyroscope y (rad/s)","Gyroscope z (rad/s)"
8.804703500E-2,-2.513400093E-2,2.763009444E-2,-4.138190299E-2
9.310198300E-2,-1.128899958E-2,1.165509317E-2,-3.286190331E-2
9.815885800E-2,1.746599935E-2,-1.390490681E-2,-2.966690622E-2
1.032345870E-1,5.793599784E-2,-3.626990691E-2,-3.073190711E-2
1.082654730E-1,9.095100313E-2,-5.437490717E-2,-3.179690987E-2
1.133206810E-1,1.122509986E-1,-6.715490669E-2,-3.499190509E-2
1.183668790E-1,1.197059974E-1,-7.460991293E-2,-4.457690567E-2
1.233934410E-1,1.101209968E-1,-7.673990726E-2,-5.309690535E-2
1.284824520E-1,8.988600224E-2,-7.247991115E-2,-6.587690860E-2
1.335359930E-1,5.793599784E-2,-6.608990580E-2,-8.398190886E-2
1.385817750E-1,1.853100024E-2,-5.969990417E-2,-1.010219082E-1
1.436337540E-1,-1.661400124E-2,-5.650490522E-2,-1.191269085E-1
1.486654210E-1,-4.962899908E-2,-4.798490554E-2,-1.393619031E-1
1.537284930E-1,-7.625400275E-2,-3.839990497E-2,-1.510769129E-1
1.587782330E-1,-9.009899944E-2,-2.987990528E-2,-1.574669033E-1
1.638221910E-1,-9.542400390E-2,-2.668490633E-2,-1.595969051E-1
1.688805250E-1,-9.435900301E-2,-2.881490625E-2,-1.564019024E-1
1.739340660E-1,-8.370900154E-2,-2.774990536E-2,-1.468169093E-1
1.789604730E-1,-6.986399740E-2,-2.881490625E-2,-1.382969022E-1
1.840036500E-1,-4.856400192E-2,-2.881490625E-2,-1.351019144E-1
1.890723480E-1,-1.767900027E-2,-3.200990707E-2,-1.287119091E-1
1.941240660E-1,1.214100048E-2,-3.413990512E-2,-1.244519055E-1
1.991766710E-1,4.196099937E-2,-3.413990512E-2,-1.223219112E-1
2.042454210E-1,6.645599753E-2,-2.455490641E-2,-1.180619076E-1
2.092791710E-1,8.988600224E-2,-8.579906076E-3,-1.201919094E-1
2.143314620E-1,1.047959998E-1,-6.449906621E-3,-1.233869046E-1
2.193810980E-1,1.079910025E-1,-7.514906116E-3,-1.276469082E-1
2.244314620E-1,1.090559959E-1,-1.177490689E-2,-1.329719126E-1
2.294880770E-1,1.058610007E-1,-2.242490463E-2,-1.372319013E-1
2.345383890E-1,9.947100282E-2,-3.413990512E-2,-1.446869075E-1
2.395901080E-1,9.414599836E-2,-3.626990691E-2,-1.532069147E-1
2.446438060E-1,8.775600046E-2,-3.094490618E-2,-1.617269069E-1
2.497097430E-1,8.562599868E-2,-2.348990552E-2,-1.755719036E-1
2.547557850E-1,8.349599689E-2,-1.709990576E-2,-1.883519143E-1
2.598133890E-1,8.349599689E-2,-6.449906621E-3,-2.011319101E-1
2.648795350E-1,8.775600046E-2,6.330093369E-3,-2.107169032E-1
2.699163060E-1,9.095100313E-2,2.656509541E-2,-2.128469050E-1
2.749641710E-1,1.005359963E-1,4.893009365E-2,-2.085869014E-1
2.800112020E-1,1.090559959E-1,6.810008734E-2,-2.032619119E-1
2.850582850E-1,1.111859977E-1,6.916508824E-2,-1.979369074E-1
2.901146390E-1,1.079910025E-1,6.277509034E-2,-1.872869134E-1
2.951682850E-1,1.047959998E-1,5.319009349E-2,-1.755719036E-1
3.002379210E-1,1.037309989E-1,4.467009380E-2,-1.649219096E-1
3.052833890E-1,1.047959998E-1,2.976009436E-2,-1.532069147E-1
3.103367750E-1,1.047959998E-1,1.378509402E-2,-1.425569057E-1
3.153809930E-1,9.840600193E-2,-5.384906661E-3,-1.351019144E-1
3.204421390E-1,8.775600046E-2,-2.774990536E-2,-1.340369135E-1
3.254894830E-1,7.923600078E-2,-5.117990449E-2,-1.340369135E-1
3.305470870E-1,6.858599931E-2,-6.608990580E-2,-1.351019144E-1
3.355951080E-1,6.539099663E-2,-7.034990937E-2,-1.361669153E-1
3.406444310E-1,6.432600319E-2,-7.247991115E-2,-1.393619031E-1
3.457019310E-1,6.645599753E-2,-7.673990726E-2,-1.436219066E-1
3.507415140E-1,6.965100020E-2,-8.099991083E-2,-1.521419138E-1
3.558050560E-1,7.604099810E-2,-8.099991083E-2,-1.574669033E-1
3.609024520E-1,8.136600256E-2,-7.567490637E-2,-1.606619060E-1
3.658854730E-1,8.775600046E-2,-7.034990937E-2,-1.617269069E-1
3.709222960E-1,9.414599836E-2,-6.715490669E-2,-1.617269069E-1
3.759862020E-1,9.201599658E-2,-6.182990596E-2,-1.627919078E-1
3.810360980E-1,8.882100135E-2,-5.863490701E-2,-1.606619060E-1
3.860875040E-1,8.030100167E-2,-5.756990612E-2,-1.585319042E-1
3.911364100E-1,6.965100020E-2,-5.117990449E-2,-1.532069147E-1
3.961853680E-1,6.006599963E-2,-4.159490392E-2,-1.457519084E-1
4.012401600E-1,5.048099905E-2,-2.455490641E-2,-1.404269040E-1
4.062969830E-1,3.663599864E-2,-1.177490689E-2,-1.414919049E-1
4.113445350E-1,2.918099985E-2,2.070093527E-3,-1.382969022E-1
4.163964620E-1,2.066100016E-2,8.460094221E-3,-1.329719126E-1
4.214450560E-1,1.320600044E-2,1.804509386E-2,-1.297769099E-1
4.265022430E-1,1.214100048E-2,2.869509533E-2,-1.233869046E-1
4.315485460E-1,1.107600052E-2,3.934509307E-2,-1.180619076E-1
4.366242230E-1,1.107600052E-2,4.680009559E-2,-1.127369106E-1
4.416611500E-1,1.640100032E-2,5.319009349E-2,-1.106069088E-1
4.467105770E-1,1.959599927E-2,5.958009511E-2,-1.106069088E-1
4.517617230E-1,2.598599903E-2,6.171009317E-2,-1.138019115E-1
4.568235460E-1,3.131099790E-2,6.064509600E-2,-1.180619076E-1
4.618683370E-1,3.770099953E-2,4.893009365E-2,-1.244519055E-1
4.669289620E-1,4.515599832E-2,3.934509307E-2,-1.329719126E-1
4.719731810E-1,5.367599800E-2,3.082509525E-2,-1.372319013E-1
4.770256810E-1,6.965100020E-2,2.017509378E-2,-1.361669153E-1
4.820789100E-1,8.456099778E-2,1.485009398E-2,-1.329719126E-1
4.871223480E-1,9.840600193E-2,2.070093527E-3,-1.287119091E-1
4.921837540E-1,1.133159995E-1,-1.390490681E-2,-1.223219112E-1
4.972352640E-1,1.239660010E-1,-2.242490463E-2,-1.201919094E-1
5.022925560E-1,1.324860007E-1,-2.774990536E-2,-1.169969067E-1
5.073322430E-1,1.420710087E-1,-3.307490423E-2,-1.159319058E-1
5.123861500E-1,1.537860036E-1,-3.413990512E-2,-1.127369106E-1
5.174428160E-1,1.708260030E-1,-3.839990497E-2,-1.106069088E-1
5.224912540E-1,1.878660023E-1,-4.372490570E-2,-1.095419079E-1
5.275396910E-1,2.006460130E-1,-5.117990449E-2,-1.074119061E-1
5.325847430E-1,2.134260088E-1,-5.543990433E-2,-1.074119061E-1
5.376353160E-1,2.219460011E-1,-6.076490507E-2,-1.116719097E-1
5.426672430E-1,2.262060046E-1,-6.608990580E-2,-1.138019115E-1
5.477045870E-1,2.251410037E-1,-6.395991147E-2,-1.169969067E-1
5.527591710E-1,2.176860124E-1,-5.863490701E-2,-1.201919094E-1
5.578042750E-1,1.974510103E-1,-5.011490732E-2,-1.233869046E-1
5.628425040E-1,1.740210056E-1,-4.904990643E-2,-1.255169064E-1
5.680307850E-1,1.463310122E-1,-4.478990659E-2,-1.233869046E-1
5.729804210E-1,1.165110022E-1,-3.307490423E-2,-1.159319058E-1
5.780150040E-1,9.095100313E-2,-1.283990685E-2,-1.074119061E-1
5.830556290E-1,7.284600288E-2,1.378509402E-2,-9.995690733E-2
5.881119830E-1,6.006599963E-2,4.147509485E-2,-8.930690587E-2
5.931576600E-1,5.261100084E-2,5.638509616E-2,-8.185190707E-2
5.982021390E-1,5.154599994E-2,6.384009123E-2,-7.652691007E-2
6.032726600E-1,6.006599963E-2,6.916508824E-2,-7.013690472E-2
6.083264100E-1,7.497599721E-2,7.555509359E-2,-6.268190593E-2
6.133764620E-1,9.521099925E-2,7.236009091E-2,-5.522690713E-2
6.184222960E-1,1.133159995E-1,7.236009091E-2,-4.457690567E-2
6.234724000E-1,1.314209998E-1,6.810008734E-2,-3.073190711E-2
6.285295870E-1,1.442010105E-1,6.277509034E-2,-2.114690654E-2
6.335839100E-1,1.505910009E-1,5.638509616E-2,-9.431906044E-3
6.386228680E-1,1.527210027E-1,4.467009380E-2,1.530938316E-4
6.436710460E-1,1.495260000E-1,2.869509533E-2,6.543093827E-3
6.487266180E-1,1.399410069E-1,1.272009313E-2,1.186809409E-2
6.537863060E-1,1.271610111E-1,-5.384906661E-3,1.399809401E-2
6.588393790E-1,1.143810004E-1,-2.348990552E-2,1.506309398E-2
6.638870870E-1,9.840600193E-2,-4.159490392E-2,9.738094173E-3
6.689404730E-1,7.923600078E-2,-5.650490522E-2,1.530938316E-4
6.739867230E-1,5.687100068E-2,-6.928490847E-2,-6.236906163E-3
6.790376080E-1,4.409100115E-2,-7.993490994E-2,-8.366906084E-3
6.840932850E-1,4.089599848E-2,-7.886990905E-2,-1.049690600E-2
6.891833890E-1,4.622099921E-2,-7.780490816E-2,-9.431906044E-3
6.941931290E-1,5.580599979E-2,-7.567490637E-2,-5.171906203E-3
6.992488580E-1,7.071600109E-2,-7.673990726E-2,-1.976906089E-3
7.043134930E-1,9.521099925E-2,-8.206491172E-2,2.283093752E-3
7.093506290E-1,1.229010001E-1,-8.419490606E-2,1.186809409E-2
7.144060980E-1,1.537860036E-1,-8.845490962E-2,2.145309374E-2
7.194495870E-1,1.804110110E-1,-7.780490816E-2,3.210309148E-2
7.244908890E-1,2.059710026E-1,-6.608990580E-2,4.275309294E-2
7.295403160E-1,2.198160142E-1,-5.969990417E-2,5.127309263E-2
7.346248480E-1,2.240760028E-1,-4.798490554E-2,6.298809499E-2
7.396683370E-1,2.272710055E-1,-3.626990691E-2,7.150809467E-2
7.447248480E-1,2.155560106E-1,-2.668490633E-2,7.576809078E-2
7.497723480E-1,1.953210086E-1,-1.816490479E-2,7.789809257E-2
7.548240660E-1,1.686960012E-1,-1.177490689E-2,7.576809078E-2
7.598796910E-1,1.367460042E-1,-1.390490681E-2,7.470308989E-2
7.649067750E-1,1.069260016E-1,-2.242490463E-2,7.363808900E-2
7.700339100E-1,7.497599721E-2,-2.774990536E-2,7.150809467E-2
7.750341710E-1,5.048099905E-2,-2.668490633E-2,6.937809289E-2
7.800922430E-1,3.131099790E-2,-2.881490625E-2,6.831309199E-2
7.851291180E-1,1.427100040E-2,-2.774990536E-2,6.618309021E-2
7.901663060E-1,5.750999786E-3,-2.348990552E-2,6.085809320E-2
7.952252640E-1,6.816000212E-3,-1.177490689E-2,6.192309409E-2
8.002665140E-1,1.320600044E-2,1.005093683E-3,6.405308843E-2
8.053177640E-1,2.066100016E-2,1.485009398E-2,6.192309409E-2
8.103660460E-1,3.131099790E-2,2.337009460E-2,6.298809499E-2
8.154150560E-1,4.302600026E-2,2.443509363E-2,6.618309021E-2
8.204675560E-1,5.687100068E-2,2.124009468E-2,7.576809078E-2
8.255205770E-1,7.071600109E-2,1.485009398E-2,8.535309136E-2
8.305737020E-1,8.562599868E-2,7.395093795E-3,9.919809550E-2
8.356238060E-1,9.308099747E-2,-1.124906237E-3,1.194330901E-1
8.406707850E-1,9.734100103E-2,-4.319906235E-3,1.386030912E-1
8.457122430E-1,9.947100282E-2,-8.579906076E-3,1.524480879E-1
8.507995870E-1,9.627600014E-2,-9.644906037E-3,1.620330960E-1
8.558341710E-1,8.882100135E-2,-7.514906116E-3,1.620330960E-1
8.608803680E-1,7.817099988E-2,-2.189906314E-3,1.588380933E-1
8.659335460E-1,6.432600319E-2,7.395093795E-3,1.503180861E-1
8.709896390E-1,5.154599994E-2,2.443509363E-2,1.396680921E-1
8.760342750E-1,4.196099937E-2,3.934509307E-2,1.279530972E-1
8.810823480E-1,3.770099953E-2,5.425509438E-2,1.194330901E-1
8.861421390E-1,3.770099953E-2,6.384009123E-2,1.141080931E-1
8.911906290E-1,4.089599848E-2,7.236009091E-2,1.066530943E-1
8.962640660E-1,4.515599832E-2,7.342509180E-2,1.066530943E-1
9.013813060E-1,5.367599800E-2,6.916508824E-2,1.077180952E-1
9.063344830E-1,6.113100052E-2,6.277509034E-2,1.109130904E-1
9.113875040E-1,6.326100230E-2,5.638509616E-2,1.183680892E-1
9.164236500E-1,6.006599963E-2,4.041009396E-2,1.215630919E-1
9.214884410E-1,5.154599994E-2,2.337009460E-2,1.215630919E-1
9.265410980E-1,3.876600042E-2,1.165509317E-2,1.162380949E-1
9.316059410E-1,2.385599911E-2,6.330093369E-3,1.119780913E-1
9.366465140E-1,4.685999826E-3,9.525093250E-3,1.055880934E-1
9.416932330E-1,-1.341899950E-2,1.378509402E-2,9.493809193E-2
9.467616710E-1,-2.939400077E-2,1.911009476E-2,8.215808868E-2
9.518013060E-1,-4.217400029E-2,2.443509363E-2,6.618309021E-2
9.568498480E-1,-5.282400176E-2,2.976009436E-2,5.127309263E-2
9.619112020E-1,-5.601900071E-2,3.295509517E-2,4.168809205E-2
9.669399520E-1,-5.708400160E-2,3.721509501E-2,3.210309148E-2
9.720290660E-1,-5.175900087E-2,4.360509291E-2,2.571309358E-2
9.770534410E-1,-4.430400208E-2,4.467009380E-2,2.464809455E-2
9.821085980E-1,-3.471900150E-2,4.147509485E-2,2.358309366E-2
9.871705770E-1,-2.939400077E-2,3.295509517E-2,2.571309358E-2
9.922569310E-1,-3.258899972E-2,2.443509363E-2,2.358309366E-2
9.973065140E-1,-4.110899940E-2,1.165509317E-2,2.358309366E-2
1.002353077E0,-5.601900071E-2,-4.319906235E-3,2.145309374E-2
1.007416150E0,-7.412400097E-2,-4.319906235E-3,1.612809300E-2
1.012459483E0,-9.435900301E-2,4.200093914E-3,9.738094173E-3
1.017507660E0,-1.103340015E-1,1.911009476E-2,1.530938316E-4
1.022569796E0,-1.220490038E-1,3.082509525E-2,-1.049690600E-2
1.027569171E0,-1.295039952E-1,4.360509291E-2,-2.114690654E-2
1.032618858E0,-1.326989979E-1,5.319009349E-2,-3.073190711E-2
1.037702139E0,-1.316339970E-1,6.384009123E-2,-4.138190299E-2
1.042712973E0,-1.284389943E-1,7.236009091E-2,-4.990190268E-2
1.047770056E0,-1.188540012E-1,7.449009269E-2,-4.990190268E-2
1.052824014E0,-1.018140018E-1,7.662009448E-2,-4.564190656E-2
1.057889639E0,-8.370900154E-2,8.194509149E-2,-4.351190478E-2
1.062938389E0,-6.773400307E-2,8.620508760E-2,-4.031690955E-2
1.067987139E0,-5.175900087E-2,8.620508760E-2,-3.818690777E-2
1.073035889E0,-4.004400223E-2,8.301009238E-2,-3.818690777E-2
1.078084691E0,-2.726400085E-2,7.449009269E-2,-3.925190866E-2
1.083133441E0,-1.661400124E-2,6.810008734E-2,-3.605690598E-2
1.088185368E0,-1.128899958E-2,5.958009511E-2,-3.392690420E-2
1.093234171E0,-5.963999778E-3,5.319009349E-2,-2.860190533E-2
1.098282921E0,-3.834000090E-3,4.147509485E-2,-2.327690646E-2
1.103331671E0,-5.963999778E-3,3.402009606E-2,-2.327690646E-2
1.108380421E0,-5.963999778E-3,2.230509371E-2,-1.795190573E-2
1.113429171E0,-7.029000204E-3,1.165509317E-2,-1.901690662E-2
1.118495004E0,-5.963999778E-3,3.135093488E-3,-1.795190573E-2
1.123543806E0,-1.022399962E-2,-5.384906661E-3,-2.008190565E-2
1.128592504E0,-1.235399954E-2,-3.254906274E-3,-2.114690654E-2
1.133641306E0,-1.448399946E-2,5.265093409E-3,-2.114690654E-2
1.138690108E0,-1.341899950E-2,9.525093250E-3,-2.008190565E-2
1.143738806E0,-1.341899950E-2,1.059009321E-2,-1.475690585E-2
1.148813441E0,-1.554899942E-2,7.395093795E-3,-9.431906044E-3
1.153862191E0,-1.661400124E-2,2.070093527E-3,-7.301906124E-3
1.158910941E0,-2.087400109E-2,-5.990627687E-5,-6.236906163E-3
1.163959743E0,-2.513400093E-2,4.200093914E-3,-5.171906203E-3
1.169008493E0,-3.045899980E-2,1.698009484E-2,-1.976906089E-3
1.174057243E0,-3.578399867E-2,2.656509541E-2,-9.119062452E-4
1.179095941E0,-4.217400029E-2,3.615009412E-2,-1.976906089E-3
1.184144691E0,-5.175900087E-2,4.041009396E-2,-9.431906044E-3
1.189193441E0,-5.495399982E-2,4.254009575E-2,-1.795190573E-2
1.194242191E0,-5.388899893E-2,3.615009412E-2,-2.753690630E-2
1.199290941E0,-4.749900103E-2,3.082509525E-2,-3.499190509E-2
1.204339743E0,-3.897900134E-2,2.550009452E-2,-4.564190656E-2
1.209409743E0,-3.152399883E-2,2.017509378E-2,-5.096690357E-2
1.214458546E0,-2.087400109E-2,1.378509402E-2,-5.629190803E-2
1.219507296E0,-7.029000204E-3,3.135093488E-3,-6.055190414E-2
1.224556046E0,3.621000098E-3,-1.124906237E-3,-6.694190949E-2
1.229604796E0,1.001100056E-2,-8.579906076E-3,-7.226690650E-2
1.234653598E0,1.427100040E-2,-1.283990685E-2,-7.652691007E-2
1.239721827E0,1.640100032E-2,-1.283990685E-2,-7.865690440E-2
1.244770577E0,1.640100032E-2,-7.514906116E-3,-8.078690618E-2
1.249819327E0,1.214100048E-2,2.070093527E-3,-8.185190707E-2
1.254868129E0,1.490999945E-3,1.698009484E-2,-8.504690975E-2
1.259916879E0,-1.448399946E-2,3.402009606E-2,-8.824190497E-2
1.264965629E0,-3.578399867E-2,5.425509438E-2,-9.143690765E-2
1.270006618E0,-5.921399966E-2,6.384009123E-2,-9.463191032E-2
1.275055368E0,-8.370900154E-2,7.023008913E-2,-9.889190644E-2
1.280104118E0,-1.082039997E-1,6.597009301E-2,-9.995690733E-2
1.285152921E0,-1.284389943E-1,5.958009511E-2,-1.010219082E-1
1.290201671E0,-1.433489919E-1,5.212509632E-2,-9.995690733E-2
1.295250473E0,-1.465439945E-1,4.573509470E-2,-1.010219082E-1
1.300365577E0,-1.476089954E-1,3.828009591E-2,-9.889190644E-2
1.305414327E0,-1.444139928E-1,2.976009436E-2,-9.889190644E-2
1.310463077E0,-1.358939856E-1,2.017509378E-2,-9.995690733E-2
1.315511879E0,-1.231139973E-1,1.272009313E-2,-1.031519100E-1
1.320560629E0,-1.039440036E-1,8.460094221E-3,-9.889190644E-2
1.325609379E0,-8.477400243E-2,4.200093914E-3,-9.782690555E-2
1.330654275E0,-6.879900396E-2,2.070093527E-3,-9.782690555E-2
1.335703077E0,-5.708400160E-2,2.070093527E-3,-9.356690943E-2
1.340751775E0,-5.495399982E-2,-2.189906314E-3,-9.356690943E-2
1.345800577E0,-5.921399966E-2,2.070093527E-3,-9.250190854E-2
1.350849327E0,-6.773400307E-2,1.378509402E-2,-8.717691153E-2
1.355898077E0,-8.157899976E-2,2.763009444E-2,-7.759191096E-2
1.360945212E0,-1.028790027E-1,4.360509291E-2,-6.694190949E-2
1.365993962E0,-1.263089925E-1,5.851509422E-2,-5.629190803E-2
1.371042712E0,-1.465439945E-1,6.810008734E-2,-4.244690388E-2
1.376091514E0,-1.603889912E-1,7.768508792E-2,-3.073190711E-2
1.381140264E0,-1.710390002E-1,8.407509327E-2,-1.475690585E-2
1.386189066E0,-1.721039861E-1,9.046509117E-2,1.218093792E-3
1.391266358E0,-1.678439975E-1,9.472508729E-2,1.506309398E-2
1.396315160E0,-1.561289877E-1,9.259509295E-2,2.571309358E-2
1.401363910E0,-1.422839910E-1,8.407509327E-2,3.423309326E-2
1.406412660E0,-1.305689961E-1,8.194509149E-2,3.423309326E-2
1.411461462E0,-1.295039952E-1,8.088009059E-2,2.890809439E-2
1.416510212E0,-1.390889883E-1,8.514009416E-2,2.038809471E-2
1.421567608E0,-1.465439945E-1,9.898509085E-2,1.399809401E-2
1.426616410E0,-1.614539921E-1,1.213500872E-1,1.080309413E-2
1.431665160E0,-1.848839968E-1,1.394550949E-1,2.283093752E-3
1.436713962E0,-2.083139867E-1,1.522351056E-1,-5.171906203E-3
1.441762712E0,-2.296139896E-1,1.564950943E-1,-1.156190597E-2
1.446811462E0,-2.498489916E-1,1.554300934E-1,-1.156190597E-2
1.451875837E0,-2.690190077E-1,1.511701047E-1,-1.369190589E-2
1.456924587E0,-2.892540097E-1,1.458451003E-1,-1.688690670E-2
1.461973337E0,-3.073590100E-1,1.437150985E-1,-1.582190581E-2
1.467022139E0,-3.212040067E-1,1.469101012E-1,-1.475690585E-2
1.472070889E0,-3.286589980E-1,1.533000916E-1,-1.262690593E-2
1.477119639E0,-3.350490034E-1,1.564950943E-1,-9.431906044E-3
1.482185785E0,-3.339840174E-1,1.543650925E-1,-6.236906163E-3
1.487234535E0,-3.212040067E-1,1.522351056E-1,2.283093752E-3
1.492283285E0,-2.977740169E-1,1.426500976E-1,7.608093787E-3
1.497332087E0,-2.711490095E-1,1.341301054E-1,1.399809401E-2
1.502380837E0,-2.391989976E-1,1.192200929E-1,1.719309390E-2
1.507429639E0,-2.072489858E-1,1.085700914E-1,2.038809471E-2
1.512498285E0,-1.710390002E-1,1.000500917E-1,2.145309374E-2
1.517547035E0,-1.358939856E-1,8.940009028E-2,1.932309382E-2
1.522595785E0,-1.135290042E-1,8.514009416E-2,8.673094213E-3
1.527644587E0,-1.018140018E-1,7.981508970E-2,1.218093792E-3
1.532693337E0,-9.648899734E-2,7.342509180E-2,-3.041906282E-3
1.537742087E0,-1.039440036E-1,7.129509002E-2,-9.431906044E-3
1.542810212E0,-1.145939976E-1,7.129509002E-2,-1.582190581E-2
1.547858962E0,-1.316339970E-1,7.342509180E-2,-1.688690670E-2
1.552907712E0,-1.444139928E-1,7.875008881E-2,-1.688690670E-2
1.557956514E0,-1.539989859E-1,8.833508939E-2,-1.475690585E-2
1.563005264E0,-1.571939886E-1,9.685508907E-2,-1.262690593E-2
1.568054066E0,-1.550639868E-1,9.898509085E-2,-1.262690593E-2
1.573102087E0,-1.518689990E-1,9.792008996E-2,-1.156190597E-2
1.578150889E0,-1.486739963E-1,9.259509295E-2,-9.431906044E-3
1.583199639E0,-1.486739963E-1,8.088009059E-2,-9.431906044E-3
1.588248389E0,-1.476089954E-1,6.597009301E-2,-3.041906282E-3
1.593297139E0,-1.486739963E-1,5.958009511E-2,1.218093792E-3
1.598345941E0,-1.539989859E-1,5.212509632E-2,5.478093866E-3
1.603404691E0,-1.646489948E-1,4.999509454E-2,5.478093866E-3
1.608453493E0,-1.774289906E-1,5.319009349E-2,1.218093792E-3
1.613502243E0,-1.891440004E-1,5.319009349E-2,-4.106906243E-3
1.618551046E0,-1.955339909E-1,5.638509616E-2,-5.171906203E-3
1.623599743E0,-1.955339909E-1,6.171009317E-2,-6.236906163E-3
1.628648546E0,-1.902089864E-1,6.703509390E-2,-8.366906084E-3
1.633708025E0,-1.763639897E-1,7.023008913E-2,-1.156190597E-2
1.638756775E0,-1.550639868E-1,7.129509002E-2,-1.475690585E-2
1.643805525E0,-1.326989979E-1,7.342509180E-2,-2.327690646E-2
1.648854327E0,-1.124640033E-1,7.129509002E-2,-3.179690987E-2
1.653903077E0,-9.648899734E-2,7.342509180E-2,-4.138190299E-2
1.658951827E0,-8.370900154E-2,8.833508939E-2,-5.629190803E-2
1.664016671E0,-7.412400097E-2,1.085700914E-1,-7.333190739E-2
1.669065421E0,-7.518900186E-2,1.373250932E-1,-8.611191064E-2
1.674114171E0,-8.157899976E-2,1.714050919E-1,-9.676190466E-2
1.679162973E0,-9.648899734E-2,1.948350966E-1,-1.031519100E-1
1.684211723E0,-1.103340015E-1,2.118750960E-1,-1.031519100E-1
1.689260473E0,-1.177890003E-1,2.321100980E-1,-1.020869091E-1
1.694403077E0,-1.199190021E-1,2.523450851E-1,-1.010219082E-1
1.699451827E0,-1.177890003E-1,2.683200836E-1,-9.356690943E-2
1.704500577E0,-1.103340015E-1,2.821650803E-1,-8.930690587E-2
1.709549327E0,-9.435900301E-2,2.938800752E-1,-8.398190886E-2
1.714598129E0,-7.412400097E-2,2.981400788E-1,-8.291690797E-2
1.719646879E0,-6.027900055E-2,2.949450910E-1,-8.185190707E-2
1.724625785E0,-5.601900071E-2,2.970750928E-1,-8.398190886E-2
1.729674587E0,-6.134400144E-2,2.992050946E-1,-9.037190676E-2
1.734723337E0,-7.625400275E-2,3.045300841E-1,-9.676190466E-2
1.739772087E0,-1.018140018E-1,3.013350964E-1,-9.676190466E-2
1.744820837E0,-1.284389943E-1,2.917500734E-1,-9.569691122E-2
1.749869639E0,-1.508039981E-1,2.693850696E-1,-9.037190676E-2
1.754939431E0,-1.721039861E-1,2.459550947E-1,-7.972190529E-2
1.759988181E0,-1.934039891E-1,2.310450971E-1,-7.226690650E-2
1.765036931E0,-2.147039920E-1,2.321100980E-1,-6.161690503E-2
1.770085681E0,-2.349389941E-1,2.395651042E-1,-5.416190624E-2
1.775134483E0,-2.562389970E-1,2.629950941E-1,-4.883690923E-2
1.780183233E0,-2.796690166E-1,2.981400788E-1,-5.416190624E-2
1.785284483E0,-3.073590100E-1,3.418050706E-1,-5.735690892E-2
1.790333285E0,-3.329190016E-1,3.950550854E-1,-5.735690892E-2
1.795382035E0,-3.520890176E-1,4.504350722E-1,-5.522690713E-2
1.800430785E0,-3.648689985E-1,4.930350780E-1,-5.096690357E-2
1.805479535E0,-3.691290021E-1,5.281801224E-1,-4.138190299E-2
1.810528337E0,-3.701940179E-1,5.537400842E-1,-3.073190711E-2
1.815575316E0,-3.638040125E-1,5.729101300E-1,-2.008190565E-2
1.820624066E0,-3.552840054E-1,5.867550969E-1,-7.301906124E-3
1.825672816E0,-3.435690105E-1,5.942100883E-1,1.218093792E-3
1.830721618E0,-3.297240138E-1,5.878201127E-1,1.218093792E-3
1.835770368E0,-3.233340085E-1,5.739750862E-1,-3.041906282E-3
1.840819118E0,-3.201390207E-1,5.526751280E-1,-1.156190597E-2
1.845892921E0,-3.190740049E-1,5.313751101E-1,-2.647190541E-2
1.850941671E0,-3.158790171E-1,4.972950816E-1,-4.351190478E-2
1.855990421E0,-3.062939942E-1,4.483050704E-1,-6.055190414E-2
1.861039223E0,-2.903189957E-1,3.993150890E-1,-7.865690440E-2
1.866087973E0,-2.647590041E-1,3.460650742E-1,-1.020869091E-1
1.871136723E0,-2.306789905E-1,2.906850874E-1,-1.233869046E-1
1.876200889E0,-1.944689900E-1,2.353051007E-1,-1.478819102E-1
1.881249691E0,-1.539989859E-1,1.820551008E-1,-1.627919078E-1
1.886298441E0,-1.082039997E-1,1.362600923E-1,-1.723769009E-1
1.891347191E0,-6.560400128E-2,9.579008818E-2,-1.808969080E-1
1.896395941E0,-2.832899988E-2,6.703509390E-2,-1.926119030E-1
1.901444691E0,1.490999945E-3,4.467009380E-2,-2.000669092E-1
1.906513910E0,1.533600036E-2,3.295509517E-2,-2.096519023E-1
1.911562712E0,1.320600044E-2,2.763009444E-2,-2.149769068E-1
1.916611462E0,-1.704000053E-3,3.295509517E-2,-2.181719095E-1
1.921660212E0,-2.406900004E-2,4.467009380E-2,-2.149769068E-1
1.926708962E0,-5.282400176E-2,5.638509616E-2,-2.075219154E-1
1.931757764E0,-7.944899797E-2,6.384009123E-2,-1.979369074E-1
1.936828285E0,-1.028790027E-1,5.638509616E-2,-1.894169152E-1
1.941877087E0,-1.220490038E-1,3.934509307E-2,-1.830269098E-1
1.946925837E0,-1.316339970E-1,1.059009321E-2,-1.787669063E-1
1.951974587E0,-1.305689961E-1,-1.709990576E-2,-1.713119149E-1
1.957023337E0,-1.252439916E-1,-4.904990643E-2,-1.681169122E-1
1.962072139E0,-1.145939976E-1,-7.567490637E-2,-1.681169122E-1
1.967144431E0,-9.968400002E-2,-1.022999063E-1,-1.734419018E-1
1.972193181E0,-8.157899976E-2,-1.246649101E-1,-1.830269098E-1
1.977241931E0,-6.027900055E-2,-1.512898952E-1,-1.926119030E-1
1.982290681E0,-4.110899940E-2,-1.725898981E-1,-2.064569145E-1
1.987339431E0,-2.300400101E-2,-1.896298975E-1,-2.160419077E-1
1.992388233E0,-9.158999659E-3,-2.013449073E-1,-2.224319130E-1
1.997415629E0,4.259999841E-4,-2.045398951E-1,-2.266919017E-1
2.002464379E0,1.107600052E-2,-2.066698968E-1,-2.288219035E-1
2.007513181E0,1.746599935E-2,-2.141249031E-1,-2.234969139E-1
2.012561931E0,2.598599903E-2,-2.258398980E-1,-2.171069086E-1
2.017610681E0,3.557099774E-2,-2.450098991E-1,-2.117819041E-1
2.022659431E0,4.515599832E-2,-2.705699205E-1,-2.011319101E-1
2.027730837E0,5.580599979E-2,-3.025199175E-1,-1.883519143E-1
2.032779587E0,7.604099810E-2,-3.365999162E-1,-1.787669063E-1
2.037828389E0,1.026659980E-1,-3.760049045E-1,-1.713119149E-1
2.042877139E0,1.324860007E-1,-4.175399244E-1,-1.670519114E-1
2.047925889E0,1.697610021E-1,-4.516199231E-1,-1.627919078E-1
2.052974639E0,2.081010044E-1,-4.771799147E-1,-1.659869105E-1
2.058059952E0,2.379209995E-1,-4.984799027E-1,-1.734419018E-1
2.063110785E0,2.517659962E-1,-5.240398645E-1,-1.840919107E-1
2.068161671E0,2.432460040E-1,-5.464048982E-1,-1.947419047E-1
2.073212504E0,2.219460011E-1,-5.570548773E-1,-2.011319101E-1
2.078263337E0,1.910610050E-1,-5.570548773E-1,-2.032619119E-1
2.083314223E0,1.548510045E-1,-5.485348701E-1,-2.053919137E-1
2.088311358E0,1.197059974E-1,-5.325598717E-1,-2.032619119E-1
2.093362191E0,8.988600224E-2,-5.112599134E-1,-2.011319101E-1
2.098413077E0,6.752099842E-2,-4.750499129E-1,-1.968719065E-1
2.103463910E0,5.261100084E-2,-4.399049282E-1,-1.819619089E-1
2.108514743E0,4.622099921E-2,-4.079549313E-1,-1.617269069E-1
2.113565629E0,3.983100131E-2,-3.781349063E-1,-1.404269040E-1
2.118618181E0,2.918099985E-2,-3.547049165E-1,-1.201919094E-1
2.123669014E0,1.959599927E-2,-3.248849213E-1,-1.010219082E-1
2.128719848E0,1.427100040E-2,-2.961299121E-1,-8.824190497E-2
2.133770733E0,3.621000098E-3,-2.705699205E-1,-8.398190886E-2
2.138821566E0,-1.235399954E-2,-2.545949221E-1,-8.717691153E-2
2.143872400E0,-3.365400061E-2,-2.471399009E-1,-9.143690765E-2
2.148925785E0,-4.856400192E-2,-2.513999045E-1,-9.143690765E-2
2.153976618E0,-6.560400128E-2,-2.609849274E-1,-8.824190497E-2
2.159027452E0,-7.625400275E-2,-2.737649083E-1,-8.185190707E-2
2.164078285E0,-7.944899797E-2,-2.822849154E-1,-7.759191096E-2
2.169129171E0,-8.051399887E-2,-2.971949279E-1,-7.652691007E-2
2.174180004E0,-7.838399708E-2,-3.067799211E-1,-7.759191096E-2
2.179242400E0,-7.412400097E-2,-3.184949160E-1,-8.185190707E-2
2.184293233E0,-7.092899829E-2,-3.323399127E-1,-8.185190707E-2
2.189344118E0,-6.560400128E-2,-3.334049284E-1,-7.759191096E-2
2.194394952E0,-6.347399950E-2,-3.312749267E-1,-7.333190739E-2
2.199445785E0,-6.560400128E-2,-3.312749267E-1,-6.694190949E-2
2.204496618E0,-7.838399708E-2,-3.397949040E-1,-6.055190414E-2
2.209545577E0,-1.018140018E-1,-3.589649200E-1,-5.096690357E-2
2.214596410E0,-1.326989979E-1,-3.823949099E-1,-3.925190866E-2
2.219647296E0,-1.657139957E-1,-4.026299119E-1,-2.327690646E-2
2.224698129E0,-1.944689900E-1,-4.058249295E-1,-1.475690585E-2
2.229748962E0,-2.200289965E-1,-3.866549134E-1,-1.049690600E-2
2.234799796E0,-2.391989976E-1,-3.557699025E-1,-8.366906084E-3
2.239882296E0,-2.445239872E-1,-3.248849213E-1,-5.171906203E-3
2.244933129E0,-2.413289994E-1,-2.971949279E-1,-3.041906282E-3
2.249983962E0,-2.306789905E-1,-2.780249119E-1,8.673094213E-3
2.255034796E0,-2.115089893E-1,-2.641799152E-1,2.358309366E-2
2.260085629E0,-1.870139986E-1,-2.471399009E-1,4.062309116E-2
2.265136462E0,-1.657139957E-1,-2.237098962E-1,5.979309231E-2
2.270163493E0,-1.476089954E-1,-1.938899010E-1,7.789809257E-2
2.275214327E0,-1.348289996E-1,-1.608749032E-1,9.493809193E-2
2.280265160E0,-1.380239874E-1,-1.310549080E-1,1.055880934E-1
2.285315993E0,-1.508039981E-1,-1.022999063E-1,1.098480895E-1
2.290366879E0,-1.710390002E-1,-8.419490606E-2,1.141080931E-1
2.295417712E0,-2.019239962E-1,-6.608990580E-2,1.215630919E-1
2.300495681E0,-2.360039949E-1,-6.289491057E-2,1.268880963E-1
2.305546514E0,-2.711490095E-1,-7.247991115E-2,1.258230954E-1
2.310597348E0,-2.967090011E-1,-8.845490962E-2,1.258230954E-1
2.315648233E0,-3.148140013E-1,-1.108199060E-1,1.215630919E-1
2.320699066E0,-3.254640102E-1,-1.353148967E-1,1.173030883E-1
2.325749900E0,-3.233340085E-1,-1.619399041E-1,1.130430922E-1
2.330774431E0,-3.158790171E-1,-1.874998957E-1,1.066530943E-1
2.335825264E0,-3.052290082E-1,-2.130599022E-1,1.002630889E-1
2.340876150E0,-2.860590219E-1,-2.386199087E-1,9.280809015E-2
2.345926983E0,-2.604990005E-1,-2.492698878E-1,8.748309314E-2
2.350977816E0,-2.285489887E-1,-2.450098991E-1,8.002809435E-2
2.356028650E0,-1.923389882E-1,-2.322299033E-1,7.363808900E-2
2.361070629E0,-1.593239903E-1,-2.119949013E-1,6.831309199E-2
2.366121462E0,-1.348289996E-1,-1.843049079E-1,6.831309199E-2
2.371172296E0,-1.220490038E-1,-1.587449014E-1,7.257309556E-2
2.376223181E0,-1.209840029E-1,-1.353148967E-1,7.683309168E-2
2.381274014E0,-1.273739934E-1,-1.150799096E-1,8.535309136E-2
2.386324848E0,-1.390889883E-1,-9.590990841E-2,9.706809372E-2
2.391385889E0,-1.529339999E-1,-7.460991293E-2,1.109130904E-1
2.396436723E0,-1.689089984E-1,-4.904990643E-2,1.258230954E-1
2.401487556E0,-1.870139986E-1,-2.987990528E-2,1.386030912E-1
2.406538441E0,-2.008589953E-1,-2.029490471E-2,1.460580975E-1
2.411589275E0,-2.125739902E-1,-1.709990576E-2,1.524480879E-1
2.416640108E0,-2.210939974E-1,-2.348990552E-2,1.535130888E-1
2.421681671E0,-2.296139896E-1,-3.946490586E-2,1.503180861E-1
2.426732504E0,-2.317439914E-1,-5.117990449E-2,1.460580975E-1
2.431783337E0,-2.296139896E-1,-5.543990433E-2,1.428630948E-1
2.436834223E0,-2.200289965E-1,-5.650490522E-2,1.386030912E-1
2.441885004E0,-1.997939944E-1,-5.650490522E-2,1.343430877E-1
2.446935889E0,-1.710390002E-1,-5.011490732E-2,1.247580945E-1
2.452030837E0,-1.422839910E-1,-4.372490570E-2,1.098480895E-1
2.457081671E0,-1.199190021E-1,-4.372490570E-2,9.280809015E-2
2.462132556E0,-9.542400390E-2,-3.733490407E-2,8.215808868E-2
2.467183389E0,-7.412400097E-2,-3.094490618E-2,7.150809467E-2
2.472234223E0,-6.240900233E-2,-2.029490471E-2,6.511808932E-2
2.477285108E0,-4.856400192E-2,-1.070990600E-2,5.446809530E-2
2.482328962E0,-3.684899956E-2,-7.514906116E-3,4.807809740E-2
2.487379848E0,-2.406900004E-2,-7.514906116E-3,4.381809384E-2
2.492430681E0,-1.235399954E-2,-8.579906076E-3,3.636309505E-2
2.497481514E0,-5.963999778E-3,-8.579906076E-3,2.997309342E-2
2.502532348E0,-2.768999897E-3,-1.603490487E-2,2.571309358E-2
2.507583233E0,-2.768999897E-3,-2.881490625E-2,2.464809455E-2
2.512611514E0,-3.834000090E-3,-4.691990465E-2,2.571309358E-2
2.517662400E0,-8.093999699E-3,-6.289491057E-2,2.784309350E-2
2.522713233E0,-1.767900027E-2,-7.247991115E-2,3.210309148E-2
2.527764066E0,-2.300400101E-2,-7.673990726E-2,3.636309505E-2
2.532814900E0,-2.939400077E-2,-7.886990905E-2,3.955809027E-2
2.537865785E0,-2.939400077E-2,-7.780490816E-2,4.062309116E-2
2.542946566E0,-2.832899988E-2,-7.567490637E-2,3.849309683E-2
2.547997348E0,-2.939400077E-2,-7.567490637E-2,3.636309505E-2
2.553048233E0,-3.258899972E-2,-7.886990905E-2,3.103809431E-2
2.558099066E0,-4.217400029E-2,-7.567490637E-2,2.677809447E-2
2.563149952E0,-5.069399998E-2,-7.141491026E-2,2.358309366E-2
2.568200733E0,-5.814899877E-2,-6.715490669E-2,1.932309382E-2
2.573244223E0,-6.879900396E-2,-6.076490507E-2,1.506309398E-2
2.578295056E0,-7.625400275E-2,-4.585490376E-2,1.506309398E-2
2.583345941E0,-7.518900186E-2,-3.094490618E-2,1.719309390E-2
2.588396775E0,-7.412400097E-2,-1.709990576E-2,1.825809292E-2
2.593447660E0,-6.986399740E-2,-1.070990600E-2,2.251809463E-2
2.598498441E0,-6.134400144E-2,-4.319906235E-3,2.677809447E-2
2.603556306E0,-4.749900103E-2,1.165509317E-2,3.210309148E-2
2.608607139E0,-3.045899980E-2,2.656509541E-2,3.316809237E-2
2.613657973E0,-1.554899942E-2,4.147509485E-2,3.636309505E-2
2.618708806E0,-2.768999897E-3,4.999509454E-2,3.955809027E-2
2.623759691E0,7.881000638E-3,5.212509632E-2,4.488309473E-2
2.628810525E0,1.427100040E-2,5.212509632E-2,4.914309084E-2
2.633862816E0,2.066100016E-2,5.425509438E-2,5.659809709E-2
2.638913650E0,2.279100008E-2,6.384009123E-2,6.192309409E-2
2.643964483E0,1.853100024E-2,7.129509002E-2,6.405308843E-2
2.649015316E0,1.640100032E-2,7.236009091E-2,6.724809110E-2
2.654066202E0,1.427100040E-2,7.662009448E-2,6.511808932E-2
2.659117035E0,1.001100056E-2,7.875008881E-2,6.085809320E-2
2.664163546E0,7.881000638E-3,8.301009238E-2,5.659809709E-2
2.669214379E0,6.816000212E-3,8.727008849E-2,5.446809530E-2
2.674265264E0,1.490999945E-3,8.514009416E-2,5.233809352E-2
2.679316046E0,-5.963999778E-3,8.301009238E-2,4.701309651E-2
2.684366931E0,-2.087400109E-2,7.768508792E-2,4.381809384E-2
2.689417764E0,-3.471900150E-2,7.662009448E-2,4.381809384E-2
2.694476202E0,-4.962899908E-2,8.194509149E-2,4.381809384E-2
2.699527087E0,-6.027900055E-2,8.194509149E-2,3.849309683E-2
2.704577868E0,-6.879900396E-2,8.514009416E-2,3.636309505E-2
2.709628702E0,-7.625400275E-2,8.088009059E-2,3.210309148E-2
2.714679587E0,-7.944899797E-2,7.875008881E-2,3.636309505E-2
2.719730421E0,-8.157899976E-2,7.662009448E-2,3.849309683E-2
2.724781098E0,-8.157899976E-2,6.384009123E-2,3.955809027E-2
2.729831931E0,-8.157899976E-2,5.425509438E-2,4.488309473E-2
2.734882816E0,-8.264400065E-2,3.721509501E-2,5.340309441E-2
2.739933650E0,-7.838399708E-2,2.017509378E-2,6.298809499E-2
2.744984483E0,-6.879900396E-2,9.525093250E-3,6.937809289E-2
2.750035316E0,-5.708400160E-2,3.135093488E-3,7.683309168E-2
2.755076618E0,-4.323900118E-2,-5.990627687E-5,7.789809257E-2
2.760127452E0,-2.513400093E-2,4.200093914E-3,7.896309346E-2
2.765178337E0,-9.158999659E-3,1.378509402E-2,7.789809257E-2
2.770229171E0,1.107600052E-2,2.337009460E-2,7.150809467E-2
2.775280004E0,2.705099992E-2,3.721509501E-2,6.724809110E-2
2.780330837E0,3.557099774E-2,5.638509616E-2,6.192309409E-2
2.785403754E0,4.622099921E-2,6.810008734E-2,5.872809142E-2
2.790454587E0,5.367599800E-2,8.407509327E-2,6.298809499E-2
2.795505421E0,5.687100068E-2,9.792008996E-2,6.192309409E-2
2.800556254E0,5.474099889E-2,1.107000932E-1,6.085809320E-2
2.805607139E0,5.154599994E-2,1.170900911E-1,6.085809320E-2
2.810657973E0,5.048099905E-2,1.181550920E-1,6.298809499E-2
2.815708441E0,4.515599832E-2,1.064400896E-1,5.872809142E-2
2.820759275E0,4.409100115E-2,8.833508939E-2,5.766309053E-2
2.825810108E0,4.302600026E-2,6.490509212E-2,5.446809530E-2
2.830860941E0,4.409100115E-2,4.573509470E-2,4.914309084E-2
2.835911827E0,4.941599816E-2,3.189009428E-2,4.701309651E-2
2.840962660E0,5.580599979E-2,3.082509525E-2,4.701309651E-2
2.846016827E0,6.006599963E-2,3.508509323E-2,4.594809562E-2
2.851067660E0,6.219599769E-2,4.254009575E-2,4.381809384E-2
2.856118493E0,6.752099842E-2,4.360509291E-2,4.168809205E-2
2.861169327E0,7.391099632E-2,4.467009380E-2,4.062309116E-2
2.866220212E0,8.030100167E-2,5.212509632E-2,3.955809027E-2
2.871271046E0,8.136600256E-2,5.851509422E-2,3.529809415E-2
2.876316306E0,7.604099810E-2,6.384009123E-2,3.423309326E-2
2.881367191E0,6.858599931E-2,7.129509002E-2,3.529809415E-2
2.886417973E0,5.793599784E-2,7.342509180E-2,3.742809594E-2
2.891468806E0,4.941599816E-2,7.449009269E-2,4.062309116E-2
2.896519691E0,3.770099953E-2,7.875008881E-2,4.062309116E-2
2.901570525E0,2.811599895E-2,7.555509359E-2,4.062309116E-2
2.906622712E0,1.959599927E-2,7.236009091E-2,4.488309473E-2
2.911673546E0,1.427100040E-2,6.916508824E-2,4.594809562E-2
2.916724431E0,1.214100048E-2,6.916508824E-2,4.807809740E-2
2.921775264E0,1.001100056E-2,6.810008734E-2,5.020809174E-2
2.926826098E0,6.816000212E-3,6.171009317E-2,4.807809740E-2
2.931876983E0,5.750999786E-3,5.532009527E-2,4.488309473E-2
2.936938806E0,2.555999905E-3,5.106009543E-2,3.742809594E-2
2.941989639E0,2.555999905E-3,4.786509275E-2,3.103809431E-2
2.947040525E0,6.816000212E-3,4.467009380E-2,2.358309366E-2
2.952091358E0,1.533600036E-2,4.041009396E-2,1.719309390E-2
2.957142191E0,2.492100000E-2,2.976009436E-2,1.080309413E-2
2.962193077E0,3.237599880E-2,1.804509386E-2,1.218093792E-3
2.967250421E0,3.663599864E-2,4.200093914E-3,-8.366906084E-3
2.972301254E0,3.983100131E-2,-1.390490681E-2,-1.582190581E-2
2.977352087E0,4.196099937E-2,-3.307490423E-2,-1.901690662E-2
2.982402921E0,4.728600010E-2,-4.159490392E-2,-2.327690646E-2
2.987453806E0,5.048099905E-2,-4.159490392E-2,-2.647190541E-2
2.992504639E0,5.580599979E-2,-3.946490586E-2,-2.647190541E-2
2.997552243E0,6.432600319E-2,-4.478990659E-2,-2.540690638E-2
3.002603077E0,7.178100199E-2,-4.052990675E-2,-2.434190549E-2
3.007653910E0,8.030100167E-2,-3.839990497E-2,-2.114690654E-2
3.012704743E0,9.308099747E-2,-3.200990707E-2,-1.369190589E-2
3.017755629E0,1.058610007E-1,-2.881490625E-2,-6.236906163E-3
3.022806462E0,1.154460013E-1,-2.029490471E-2,1.530938316E-4
3.027864483E0,1.165110022E-1,-1.709990576E-2,5.478093866E-3
3.032915316E0,1.133159995E-1,-9.644906037E-3,9.738094173E-3
3.037966150E0,1.058610007E-1,3.135093488E-3,1.399809401E-2
3.043016983E0,9.414599836E-2,1.485009398E-2,1.506309398E-2
3.048067868E0,8.030100167E-2,3.295509517E-2,1.506309398E-2
3.053118702E0,6.752099842E-2,5.106009543E-2,1.719309390E-2
3.058145421E0,5.580599979E-2,6.384009123E-2,1.506309398E-2
3.063196358E0,4.622099921E-2,7.342509180E-2,1.080309413E-2
3.068247243E0,4.302600026E-2,8.407509327E-2,6.543093827E-3
3.073298129E0,4.089599848E-2,8.407509327E-2,1.218093792E-3
3.078349066E0,4.515599832E-2,8.088009059E-2,-6.236906163E-3
3.083400004E0,4.941599816E-2,7.449009269E-2,-1.369190589E-2
3.088468441E0,5.687100068E-2,6.490509212E-2,-1.901690662E-2
3.093519379E0,6.752099842E-2,5.212509632E-2,-2.221190557E-2
3.098570264E0,7.817099988E-2,3.721509501E-2,-2.114690654E-2
3.103621202E0,8.882100135E-2,2.550009452E-2,-2.540690638E-2
3.108672139E0,9.308099747E-2,8.460094221E-3,-2.647190541E-2
3.113723077E0,9.840600193E-2,-1.124906237E-3,-2.540690638E-2
3.118732087E0,9.840600193E-2,-5.384906661E-3,-2.540690638E-2
3.123783025E0,9.947100282E-2,-7.514906116E-3,-2.114690654E-2
3.128833910E0,9.947100282E-2,-5.990627687E-5,-2.008190565E-2
3.133884848E0,9.947100282E-2,8.460094221E-3,-1.901690662E-2
3.138935733E0,1.005359963E-1,1.378509402E-2,-1.688690670E-2
3.143986671E0,9.840600193E-2,2.230509371E-2,-1.688690670E-2
3.149050681E0,9.840600193E-2,2.763009444E-2,-2.008190565E-2
3.154101566E0,9.627600014E-2,3.402009606E-2,-2.008190565E-2
3.159152504E0,9.308099747E-2,4.254009575E-2,-2.221190557E-2
3.164203441E0,8.882100135E-2,4.573509470E-2,-2.327690646E-2
3.169254327E0,8.349599689E-2,5.532009527E-2,-2.008190565E-2
3.174305212E0,8.030100167E-2,6.277509034E-2,-1.688690670E-2
3.179353389E0,7.391099632E-2,6.703509390E-2,-1.262690593E-2
3.184404275E0,7.071600109E-2,6.810008734E-2,-1.156190597E-2
3.189455160E0,6.752099842E-2,7.023008913E-2,-1.156190597E-2
3.194506098E0,6.752099842E-2,6.277509034E-2,-1.049690600E-2
3.199557035E0,6.858599931E-2,5.212509632E-2,-1.156190597E-2
3.204607921E0,7.178100199E-2,3.828009591E-2,-1.049690600E-2
3.209660004E0,7.604099810E-2,2.976009436E-2,-1.262690593E-2
3.214710941E0,8.243099600E-2,2.230509371E-2,-1.369190589E-2
3.219761827E0,8.882100135E-2,1.804509386E-2,-1.156190597E-2
3.224812764E0,8.988600224E-2,8.460094221E-3,-1.049690600E-2
3.229863702E0,8.882100135E-2,4.200093914E-3,-1.369190589E-2
3.234914587E0,8.562599868E-2,3.135093488E-3,-1.369190589E-2
3.239988910E0,8.775600046E-2,4.200093914E-3,-9.431906044E-3
3.245039796E0,9.521099925E-2,9.525093250E-3,-9.119062452E-4
3.250090733E0,1.005359963E-1,1.911009476E-2,4.413093906E-3
3.255141671E0,1.058610007E-1,3.082509525E-2,9.738094173E-3
3.260192556E0,1.058610007E-1,4.041009396E-2,9.738094173E-3
3.265243493E0,1.016009971E-1,4.041009396E-2,9.738094173E-3
3.270262764E0,9.521099925E-2,4.467009380E-2,6.543093827E-3
3.275313754E0,8.775600046E-2,4.786509275E-2,1.080309413E-2
3.280364639E0,7.923600078E-2,6.171009317E-2,1.719309390E-2
3.285415577E0,6.965100020E-2,7.023008913E-2,2.038809471E-2
3.290466514E0,5.793599784E-2,7.555509359E-2,2.251809463E-2
3.295517400E0,4.409100115E-2,7.555509359E-2,1.293309405E-2
3.300580577E0,2.811599895E-2,6.703509390E-2,4.413093906E-3
3.305631514E0,1.640100032E-2,6.384009123E-2,-9.119062452E-4
3.310682400E0,1.001100056E-2,6.384009123E-2,-5.171906203E-3
3.315733285E0,1.214100048E-2,6.916508824E-2,-1.049690600E-2
3.320784275E0,2.066100016E-2,6.810008734E-2,-1.475690585E-2
3.325835160E0,2.705099992E-2,5.958009511E-2,-1.901690662E-2
3.330890368E0,3.983100131E-2,4.786509275E-2,-2.114690654E-2
3.335941254E0,5.580599979E-2,3.721509501E-2,-1.795190573E-2
3.340992139E0,8.136600256E-2,2.976009436E-2,-1.156190597E-2
3.346043129E0,1.037309989E-1,2.656509541E-2,-4.106906243E-3
3.351094014E0,1.314209998E-1,2.230509371E-2,1.218093792E-3
3.356144900E0,1.548510045E-1,1.378509402E-2,3.348093713E-3
3.361196983E0,1.782810092E-1,1.165509317E-2,6.543093827E-3
3.366247921E0,1.921260059E-1,8.460094221E-3,5.478093866E-3
3.371298806E0,1.985160112E-1,5.265093409E-3,7.608093787E-3
3.376349796E0,1.953210086E-1,2.070093527E-3,6.543093827E-3
3.381400681E0,1.857360005E-1,-2.189906314E-3,5.478093866E-3
3.386451566E0,1.665660143E-1,-3.254906274E-3,2.283093752E-3
3.391545473E0,1.473960131E-1,-3.254906274E-3,2.283093752E-3
3.396596358E0,1.239660010E-1,-1.124906237E-3,1.218093792E-3
3.401647296E0,1.016009971E-1,8.460094221E-3,1.218093792E-3
3.406698233E0,8.456099778E-2,2.443509363E-2,4.413093906E-3
3.411749118E0,7.604099810E-2,3.615009412E-2,7.608093787E-3
3.416800056E0,7.391099632E-2,3.721509501E-2,9.738094173E-3
3.421803077E0,7.817099988E-2,3.295509517E-2,1.399809401E-2
3.426854014E0,9.308099747E-2,2.230509371E-2,1.399809401E-2
3.431904900E0,1.143810004E-1,6.330093369E-3,1.719309390E-2
3.436955785E0,1.388760060E-1,-3.254906274E-3,2.038809471E-2
3.442006775E0,1.665660143E-1,-8.579906076E-3,2.251809463E-2
3.447057660E0,1.974510103E-1,-1.496990677E-2,2.571309358E-2
3.452109223E0,2.294010073E-1,-2.561990544E-2,2.997309342E-2
3.457160160E0,2.602860034E-1,-3.200990707E-2,3.529809415E-2
3.462211046E0,2.869109809E-1,-3.839990497E-2,4.062309116E-2
3.467261983E0,3.060809970E-1,-3.946490586E-2,4.381809384E-2
3.472312868E0,3.273809850E-1,-4.265990481E-2,4.807809740E-2
3.477363806E0,3.433559835E-1,-4.372490570E-2,4.701309651E-2
3.482447243E0,3.508110046E-1,-4.265990481E-2,4.701309651E-2
3.487498129E0,3.518759906E-1,-3.839990497E-2,4.594809562E-2
3.492549066E0,3.465510011E-1,-3.094490618E-2,4.168809205E-2
3.497600004E0,3.359009922E-1,-1.177490689E-2,3.849309683E-2
3.502650941E0,3.263159990E-1,3.135093488E-3,3.636309505E-2
3.507701827E0,3.092759848E-1,2.017509378E-2,3.636309505E-2
3.512766671E0,2.911709845E-1,3.189009428E-2,3.742809594E-2
3.517817608E0,2.666759789E-1,3.295509517E-2,3.742809594E-2
3.522868546E0,2.411160022E-1,3.295509517E-2,3.529809415E-2
3.527919431E0,2.166210115E-1,3.295509517E-2,3.316809237E-2
3.532970368E0,1.953210086E-1,3.295509517E-2,3.316809237E-2
3.538021306E0,1.750860065E-1,3.721509501E-2,2.890809439E-2
3.543048181E0,1.527210027E-1,4.041009396E-2,2.358309366E-2
3.548099066E0,1.292910129E-1,4.360509291E-2,1.825809292E-2
3.553150004E0,1.079910025E-1,4.999509454E-2,1.399809401E-2
3.558200889E0,9.414599836E-2,5.958009511E-2,1.399809401E-2
3.563251827E0,8.243099600E-2,6.597009301E-2,1.612809300E-2
3.568302764E0,7.284600288E-2,6.916508824E-2,1.399809401E-2
3.573350733E0,6.539099663E-2,7.449009269E-2,1.080309413E-2
3.578401618E0,5.900099874E-2,7.981508970E-2,9.738094173E-3
3.583452504E0,5.048099905E-2,7.768508792E-2,3.348093713E-3
3.588503441E0,3.876600042E-2,7.875008881E-2,-4.106906243E-3
3.593554379E0,2.705099992E-2,7.662009448E-2,-7.301906124E-3
3.598605316E0,1.214100048E-2,7.555509359E-2,-8.366906084E-3
3.603656931E0,4.259999841E-4,6.384009123E-2,-1.049690600E-2
3.608707868E0,-7.029000204E-3,5.212509632E-2,-1.156190597E-2
3.613758806E0,-1.448399946E-2,4.254009575E-2,-1.049690600E-2
3.618809743E0,-1.128899958E-2,3.402009606E-2,-7.301906124E-3
3.623860629E0,-1.704000053E-3,3.189009428E-2,-5.171906203E-3
3.628911566E0,8.946000598E-3,2.976009436E-2,-3.041906282E-3
3.633980837E0,2.385599911E-2,2.869509533E-2,-9.119062452E-4
3.639031775E0,4.302600026E-2,2.869509533E-2,9.738094173E-3
3.644082660E0,6.326100230E-2,2.976009436E-2,1.932309382E-2
3.649133598E0,8.030100167E-2,3.295509517E-2,2.784309350E-2
3.654184535E0,9.308099747E-2,3.615009412E-2,3.423309326E-2
3.659235421E0,9.734100103E-2,3.615009412E-2,3.423309326E-2
3.664256618E0,9.201599658E-2,3.508509323E-2,3.316809237E-2
3.669307556E0,8.136600256E-2,3.082509525E-2,3.103809431E-2
3.674358441E0,6.539099663E-2,3.082509525E-2,2.784309350E-2
3.679409327E0,4.515599832E-2,3.295509517E-2,2.464809455E-2
3.684460264E0,2.279100008E-2,3.615009412E-2,2.464809455E-2
3.689511202E0,-6.390000344E-4,4.254009575E-2,2.571309358E-2
3.694595160E0,-2.300400101E-2,4.680009559E-2,2.890809439E-2
3.699646046E0,-4.643400013E-2,4.999509454E-2,3.210309148E-2
3.704696983E0,-6.347399950E-2,5.106009543E-2,3.636309505E-2
3.709747921E0,-7.199399918E-2,4.999509454E-2,4.168809205E-2
3.714798806E0,-7.731900364E-2,4.467009380E-2,4.168809205E-2
3.719849743E0,-8.157899976E-2,3.402009606E-2,4.701309651E-2
3.724875108E0,-7.731900364E-2,2.550009452E-2,5.340309441E-2
3.729926046E0,-6.453900039E-2,1.485009398E-2,5.979309231E-2
3.734976931E0,-4.749900103E-2,3.135093488E-3,6.724809110E-2
3.740027868E0,-2.619899996E-2,-8.579906076E-3,8.002809435E-2
3.745078806E0,-2.768999897E-3,-2.455490641E-2,8.854809403E-2
3.750129743E0,2.066100016E-2,-4.159490392E-2,9.813309461E-2
3.755192973E0,3.770099953E-2,-5.437490717E-2,1.066530943E-1
3.760243910E0,4.835100099E-2,-6.715490669E-2,1.162380949E-1
3.765294848E0,4.835100099E-2,-6.715490669E-2,1.258230954E-1
3.770345785E0,4.089599848E-2,-6.289491057E-2,1.322130859E-1
3.775396671E0,2.811599895E-2,-5.011490732E-2,1.386030912E-1
3.780447608E0,8.946000598E-3,-3.626990691E-2,1.375380903E-1
3.785495473E0,-1.554899942E-2,-2.561990544E-2,1.300830990E-1
3.790546410E0,-4.004400223E-2,-1.283990685E-2,1.236930937E-1
3.795597296E0,-6.666900218E-2,4.200093914E-3,1.130430922E-1
3.800648233E0,-9.116400033E-2,1.911009476E-2,1.023930907E-1
3.805699171E0,-1.135290042E-1,2.869509533E-2,9.919809550E-2
3.810750056E0,-1.316339970E-1,3.508509323E-2,9.706809372E-2
3.815804379E0,-1.422839910E-1,3.402009606E-2,9.706809372E-2
3.820855316E0,-1.390889883E-1,2.763009444E-2,1.023930907E-1
3.825906202E0,-1.305689961E-1,2.230509371E-2,1.066530943E-1
3.830957087E0,-1.177890003E-1,1.272009313E-2,1.098480895E-1
3.836008077E0,-9.861899912E-2,2.070093527E-3,1.141080931E-1
3.841058962E0,-7.518900186E-2,-9.644906037E-3,1.130430922E-1
3.846112191E0,-5.495399982E-2,-1.922990568E-2,1.130430922E-1
3.851163129E0,-3.365400061E-2,-2.242490463E-2,1.141080931E-1
3.856214014E0,-1.341899950E-2,-2.561990544E-2,1.151730940E-1
3.861264952E0,7.881000638E-3,-2.774990536E-2,1.151730940E-1
3.866315889E0,2.172599919E-2,-3.307490423E-2,1.130430922E-1
3.871366775E0,2.598599903E-2,-3.946490586E-2,1.066530943E-1
3.876448337E0,2.279100008E-2,-4.372490570E-2,9.706809372E-2
3.881499223E0,1.533600036E-2,-4.904990643E-2,8.748309314E-2
3.886550160E0,3.621000098E-3,-4.798490554E-2,7.896309346E-2
3.891601098E0,-1.554899942E-2,-4.052990675E-2,6.724809110E-2
3.896651983E0,-3.791400045E-2,-3.094490618E-2,5.872809142E-2
3.901702921E0,-5.814899877E-2,-2.135990560E-2,5.233809352E-2
3.906752191E0,-8.051399887E-2,-9.644906037E-3,4.701309651E-2
3.911803077E0,-9.968400002E-2,-1.124906237E-3,4.381809384E-2
3.916854014E0,-1.124640033E-1,7.395093795E-3,3.955809027E-2
3.921904952E0,-1.188540012E-1,2.230509371E-2,3.529809415E-2
3.926955837E0,-1.177890003E-1,2.763009444E-2,3.529809415E-2
3.932006827E0,-1.071389988E-1,2.869509533E-2,3.742809594E-2
3.937071566E0,-9.542400390E-2,3.295509517E-2,4.062309116E-2
3.942122452E0,-7.412400097E-2,3.295509517E-2,4.168809205E-2
3.947173389E0,-4.749900103E-2,2.550009452E-2,4.168809205E-2
3.952224327E0,-2.193900011E-2,2.017509378E-2,3.849309683E-2
3.957275264E0,4.685999826E-3,1.485009398E-2,3.210309148E-2
3.962326202E0,2.918099985E-2,8.460094221E-3,2.677809447E-2
3.967342504E0,4.941599816E-2,2.070093527E-3,1.825809292E-2
3.972393441E0,6.539099663E-2,-5.990627687E-5,7.608093787E-3
3.977444327E0,7.391099632E-2,-4.319906235E-3,-3.041906282E-3
3.982495264E0,7.604099810E-2,-6.449906621E-3,-1.156190597E-2
3.987546202E0,7.497599721E-2,-6.449906621E-3,-1.688690670E-2
3.992597087E0,7.071600109E-2,-7.514906116E-3,-2.221190557E-2
3.997645473E0,6.432600319E-2,-4.319906235E-3,-2.860190533E-2
4.002696410E0,6.006599963E-2,-3.254906274E-3,-3.179690987E-2
4.007747296E0,5.048099905E-2,5.265093409E-3,-3.073190711E-2
4.012798233E0,4.089599848E-2,1.485009398E-2,-3.179690987E-2
4.017849171E0,3.131099790E-2,2.763009444E-2,-3.073190711E-2
4.022900056E0,2.705099992E-2,4.147509485E-2,-2.966690622E-2
4.027941254E0,2.705099992E-2,5.106009543E-2,-2.966690622E-2
4.032992243E0,2.385599911E-2,5.212509632E-2,-3.073190711E-2
4.038043129E0,2.385599911E-2,4.467009380E-2,-3.073190711E-2
4.043094014E0,2.598599903E-2,3.402009606E-2,-3.073190711E-2
4.048144952E0,3.024599887E-2,2.976009436E-2,-3.286190331E-2
4.053195889E0,3.450600058E-2,2.550009452E-2,-3.286190331E-2
4.058257087E0,4.302600026E-2,2.337009460E-2,-3.392690420E-2
4.063308129E0,5.154599994E-2,1.698009484E-2,-3.286190331E-2
4.068359118E0,6.432600319E-2,1.378509402E-2,-3.499190509E-2
4.073410160E0,7.178100199E-2,1.591509394E-2,-3.499190509E-2
4.078461202E0,8.136600256E-2,2.337009460E-2,-3.605690598E-2
4.083512243E0,9.095100313E-2,3.082509525E-2,-3.712190688E-2
4.088564535E0,9.840600193E-2,3.934509307E-2,-3.392690420E-2
4.093615577E0,1.037309989E-1,4.786509275E-2,-2.860190533E-2
4.098666566E0,9.947100282E-2,5.106009543E-2,-2.647190541E-2
4.103717608E0,9.095100313E-2,4.680009559E-2,-2.114690654E-2
4.108768650E0,7.604099810E-2,4.467009380E-2,-1.475690585E-2
4.113819691E0,5.687100068E-2,4.254009575E-2,-9.431906044E-3
4.118906775E0,4.409100115E-2,4.041009396E-2,-9.119062452E-4
4.123957816E0,2.918099985E-2,4.467009380E-2,6.543093827E-3
4.129008858E0,1.640100032E-2,4.893009365E-2,1.080309413E-2
4.134059900E0,5.750999786E-3,4.999509454E-2,1.399809401E-2
4.139110941E0,-3.834000090E-3,5.425509438E-2,1.186809409E-2
4.144161983E0,-1.022399962E-2,5.532009527E-2,6.543093827E-3
4.149206358E0,-1.235399954E-2,6.064509600E-2,3.348093713E-3
4.154257348E0,-1.235399954E-2,6.064509600E-2,-1.976906089E-3
4.159308389E0,-8.093999699E-3,6.171009317E-2,-6.236906163E-3
4.164359431E0,-5.963999778E-3,5.532009527E-2,-7.301906124E-3
4.169410473E0,1.490999945E-3,4.147509485E-2,-9.431906044E-3
4.174461514E0,1.320600044E-2,2.550009452E-2,-1.156190597E-2
4.179475889E0,2.066100016E-2,1.378509402E-2,-1.049690600E-2
4.184526931E0,3.344099969E-2,6.330093369E-3,-9.431906044E-3
4.189577921E0,4.409100115E-2,1.005093683E-3,-6.236906163E-3
4.194628962E0,4.941599816E-2,-2.189906314E-3,-1.976906089E-3
4.199680004E0,5.687100068E-2,-7.514906116E-3,5.478093866E-3
4.204731046E0,5.900099874E-2,-1.177490689E-2,1.612809300E-2
4.209799379E0,6.113100052E-2,-1.283990685E-2,2.677809447E-2
4.214850421E0,6.539099663E-2,-4.319906235E-3,3.210309148E-2
4.219901410E0,6.752099842E-2,1.005093683E-3,3.955809027E-2
4.224952504E0,6.539099663E-2,7.395093795E-3,4.168809205E-2
4.230003546E0,6.432600319E-2,1.911009476E-2,4.062309116E-2
4.235054587E0,6.219599769E-2,2.550009452E-2,3.849309683E-2
4.240130629E0,5.580599979E-2,3.082509525E-2,3.103809431E-2
4.245181671E0,4.728600010E-2,3.082509525E-2,2.358309366E-2
4.250232712E0,4.089599848E-2,2.337009460E-2,1.719309390E-2
4.255283754E0,3.344099969E-2,1.804509386E-2,1.399809401E-2
4.260334796E0,2.705099992E-2,1.378509402E-2,1.186809409E-2
4.265385837E0,2.066100016E-2,4.200093914E-3,8.673094213E-3
4.270444796E0,1.853100024E-2,-4.319906235E-3,5.478093866E-3
4.275495889E0,2.066100016E-2,-1.390490681E-2,5.478093866E-3
4.280546879E0,2.705099992E-2,-2.348990552E-2,6.543093827E-3
4.285597921E0,3.237599880E-2,-2.881490625E-2,6.543093827E-3
4.290648962E0,3.983100131E-2,-3.200990707E-2,6.543093827E-3
4.295700004E0,4.409100115E-2,-3.413990512E-2,4.413093906E-3
4.300717452E0,4.622099921E-2,-3.733490407E-2,1.218093792E-3
4.305768493E0,4.835100099E-2,-4.265990481E-2,-1.976906089E-3
4.310819535E0,4.728600010E-2,-4.478990659E-2,-1.976906089E-3
4.315870525E0,4.622099921E-2,-4.159490392E-2,-9.119062452E-4
4.320921566E0,4.622099921E-2,-4.052990675E-2,1.218093792E-3
4.325972608E0,4.302600026E-2,-3.733490407E-2,1.530938316E-4
4.331052608E0,3.557099774E-2,-3.200990707E-2,-9.119062452E-4
4.336103598E0,2.705099992E-2,-2.455490641E-2,-1.976906089E-3
4.341154639E0,1.640100032E-2,-1.603490487E-2,1.530938316E-4
4.346205681E0,8.946000598E-3,-7.514906116E-3,2.283093752E-3
4.351256723E0,1.490999945E-3,1.005093683E-3,6.543093827E-3
4.356307764E0,-9.158999659E-3,7.395093795E-3,9.738094173E-3
4.361333962E0,-1.767900027E-2,1.378509402E-2,1.080309413E-2
4.366385004E0,-2.619899996E-2,1.804509386E-2,1.293309405E-2
4.371436046E0,-3.152399883E-2,2.017509378E-2,1.506309398E-2
4.376487035E0,-3.897900134E-2,2.017509378E-2,1.293309405E-2
4.381538077E0,-3.897900134E-2,1.911009476E-2,1.293309405E-2
4.386589118E0,-3.471900150E-2,1.698009484E-2,8.673094213E-3
4.391639900E0,-3.045899980E-2,7.395093795E-3,2.283093752E-3
4.396690941E0,-2.619899996E-2,-3.254906274E-3,1.218093792E-3
4.401741931E0,-1.661400124E-2,-1.070990600E-2,-1.976906089E-3
4.406792973E0,-5.963999778E-3,-1.709990576E-2,-9.431906044E-3
4.411844014E0,3.621000098E-3,-2.561990544E-2,-1.262690593E-2
4.416895056E0,1.320600044E-2,-2.987990528E-2,-1.688690670E-2
4.421987712E0,1.746599935E-2,-3.413990512E-2,-2.008190565E-2
4.427038754E0,2.172599919E-2,-4.265990481E-2,-2.114690654E-2
4.432089796E0,2.492100000E-2,-4.478990659E-2,-2.434190549E-2
4.437140837E0,2.385599911E-2,-4.691990465E-2,-2.221190557E-2
4.442191879E0,2.172599919E-2,-4.798490554E-2,-2.114690654E-2
4.447242921E0,1.746599935E-2,-4.691990465E-2,-1.901690662E-2
4.452281306E0,1.107600052E-2,-4.798490554E-2,-1.901690662E-2
4.457332348E0,5.750999786E-3,-4.585490376E-2,-1.688690670E-2
4.462383389E0,-6.390000344E-4,-4.052990675E-2,-1.582190581E-2
4.467434431E0,-5.963999778E-3,-3.946490586E-2,-1.688690670E-2
4.472485473E0,-7.029000204E-3,-4.159490392E-2,-1.901690662E-2
4.477536514E0,-8.093999699E-3,-4.052990675E-2,-2.008190565E-2
4.482591150E0,-5.963999778E-3,-4.159490392E-2,-1.795190573E-2
4.487642191E0,1.490999945E-3,-4.052990675E-2,-1.795190573E-2
4.492693233E0,1.214100048E-2,-3.520490602E-2,-1.688690670E-2
4.497744275E0,2.172599919E-2,-3.094490618E-2,-1.901690662E-2
4.502795316E0,3.131099790E-2,-2.455490641E-2,-2.327690646E-2
4.507846358E0,3.450600058E-2,-2.135990560E-2,-2.327690646E-2
4.512866931E0,3.663599864E-2,-1.603490487E-2,-2.327690646E-2
4.517917973E0,3.663599864E-2,-1.390490681E-2,-2.221190557E-2
4.522969014E0,3.663599864E-2,-1.709990576E-2,-2.221190557E-2
4.528020056E0,3.237599880E-2,-1.816490479E-2,-1.688690670E-2
4.533071098E0,3.344099969E-2,-1.922990568E-2,-1.369190589E-2
4.538122139E0,3.876600042E-2,-1.709990576E-2,-6.236906163E-3
4.543168910E0,4.728600010E-2,-1.816490479E-2,-3.041906282E-3
4.548219952E0,6.326100230E-2,-2.455490641E-2,-9.119062452E-4
4.553270941E0,7.710599899E-2,-2.774990536E-2,1.218093792E-3
4.558322035E0,9.414599836E-2,-3.307490423E-2,1.530938316E-4
4.563373077E0,1.122509986E-1,-3.413990512E-2,-9.119062452E-4
4.568424066E0,1.292910129E-1,-3.626990691E-2,1.530938316E-4
4.573532816E0,1.484610140E-1,-3.733490407E-2,1.218093792E-3
4.578583858E0,1.655010134E-1,-3.307490423E-2,4.413093906E-3
4.583634900E0,1.814760119E-1,-2.668490633E-2,6.543093827E-3
4.588685941E0,1.963860095E-1,-1.390490681E-2,4.413093906E-3
4.593736983E0,2.049060017E-1,4.200093914E-3,2.283093752E-3
4.598788025E0,2.081010044E-1,1.804509386E-2,1.530938316E-4
4.603809535E0,2.038410008E-1,2.017509378E-2,-3.041906282E-3
4.608860577E0,1.878660023E-1,1.804509386E-2,-9.431906044E-3
4.613911566E0,1.591110080E-1,9.525093250E-3,-1.049690600E-2
4.618962608E0,1.250310093E-1,2.070093527E-3,-1.049690600E-2
4.624013650E0,9.095100313E-2,-5.990627687E-5,-5.171906203E-3
4.629064691E0,5.687100068E-2,-1.124906237E-3,6.543093827E-3
4.634117452E0,2.918099985E-2,1.005093683E-3,1.825809292E-2
4.639168546E0,8.946000598E-3,1.005093683E-3,2.677809447E-2
4.644219535E0,-9.158999659E-3,-3.254906274E-3,3.636309505E-2
4.649270577E0,-1.874400117E-2,-1.070990600E-2,4.488309473E-2
4.654321618E0,-2.087400109E-2,-2.455490641E-2,5.233809352E-2
4.659372660E0,-1.767900027E-2,-2.881490625E-2,5.872809142E-2
4.664418233E0,-9.158999659E-3,-2.135990560E-2,6.298809499E-2
4.669469275E0,-1.704000053E-3,-1.603490487E-2,5.979309231E-2
4.674520264E0,2.555999905E-3,-6.449906621E-3,5.233809352E-2
4.679571306E0,3.621000098E-3,3.135093488E-3,4.275309294E-2
4.684622348E0,4.259999841E-4,1.059009321E-2,3.316809237E-2
4.689673389E0,-9.158999659E-3,1.698009484E-2,2.358309366E-2
4.694723181E0,-1.661400124E-2,2.443509363E-2,1.719309390E-2
4.699774223E0,-2.619899996E-2,3.082509525E-2,1.399809401E-2
4.704825212E0,-4.004400223E-2,3.189009428E-2,8.673094213E-3
4.709876254E0,-5.175900087E-2,2.656509541E-2,4.413093906E-3
4.714927348E0,-5.814899877E-2,2.017509378E-2,-4.106906243E-3
4.719978337E0,-6.560400128E-2,1.272009313E-2,-9.431906044E-3
4.725030629E0,-7.412400097E-2,1.059009321E-2,-1.688690670E-2
4.730081671E0,-8.051399887E-2,1.005093683E-3,-2.114690654E-2
4.735132660E0,-8.370900154E-2,-7.514906116E-3,-2.114690654E-2
4.740183702E0,-8.796899766E-2,-1.177490689E-2,-2.647190541E-2
4.745234743E0,-8.903399855E-2,-1.070990600E-2,-2.540690638E-2
4.750285785E0,-8.796899766E-2,-1.283990685E-2,-2.327690646E-2
4.755366098E0,-8.370900154E-2,-1.177490689E-2,-2.221190557E-2
4.760417139E0,-7.944899797E-2,-1.070990600E-2,-1.901690662E-2
4.765468181E0,-7.199399918E-2,-5.384906661E-3,-1.475690585E-2
4.770519223E0,-6.560400128E-2,-6.449906621E-3,-1.049690600E-2
4.775570264E0,-5.814899877E-2,-6.449906621E-3,-4.106906243E-3
4.780621306E0,-5.069399998E-2,-2.189906314E-3,4.413093906E-3
4.785643806E0,-4.536899924E-2,-1.124906237E-3,1.506309398E-2
4.790694796E0,-4.110899940E-2,-5.990627687E-5,2.464809455E-2
4.795745837E0,-3.791400045E-2,-1.124906237E-3,2.997309342E-2
4.800796879E0,-3.791400045E-2,-5.990627687E-5,3.423309326E-2
4.805847921E0,-3.897900134E-2,3.135093488E-3,3.529809415E-2
4.810898962E0,-3.684899956E-2,1.165509317E-2,3.316809237E-2
4.815959900E0,-4.004400223E-2,1.591509394E-2,2.571309358E-2
4.821010941E0,-4.004400223E-2,1.698009484E-2,2.251809463E-2
4.826061983E0,-4.110899940E-2,1.485009398E-2,1.612809300E-2
4.831113025E0,-4.643400013E-2,8.460094221E-3,8.673094213E-3
4.836164066E0,-5.175900087E-2,8.460094221E-3,2.283093752E-3
4.841215108E0,-5.282400176E-2,7.395093795E-3,-8.366906084E-3
4.846261723E0,-5.175900087E-2,2.070093527E-3,-1.049690600E-2
4.851312764E0,-4.962899908E-2,1.005093683E-3,-9.431906044E-3
4.856363754E0,-4.217400029E-2,-6.449906621E-3,-1.049690600E-2
4.861414848E0,-3.365400061E-2,-1.603490487E-2,-1.976906089E-3
4.866465889E0,-2.087400109E-2,-2.668490633E-2,6.543093827E-3
4.871516931E0,-8.093999699E-3,-3.413990512E-2,1.399809401E-2
4.876567660E0,4.685999826E-3,-3.839990497E-2,2.145309374E-2
4.881618702E0,1.533600036E-2,-3.839990497E-2,2.464809455E-2
4.886669743E0,2.598599903E-2,-3.946490586E-2,3.103809431E-2
4.891720785E0,3.557099774E-2,-4.159490392E-2,3.210309148E-2
4.896771827E0,4.515599832E-2,-3.626990691E-2,3.423309326E-2
4.901822868E0,5.367599800E-2,-2.987990528E-2,3.529809415E-2
4.906866098E0,5.900099874E-2,-1.283990685E-2,3.742809594E-2
4.911917191E0,6.326100230E-2,-3.254906274E-3,3.849309683E-2
4.916968181E0,6.432600319E-2,6.330093369E-3,3.849309683E-2
4.922019223E0,6.113100052E-2,1.485009398E-2,3.529809415E-2
4.927070264E0,5.687100068E-2,2.017509378E-2,3.316809237E-2
4.932121306E0,5.048099905E-2,2.656509541E-2,3.316809237E-2
4.937185733E0,3.876600042E-2,3.189009428E-2,2.677809447E-2
4.942236775E0,2.811599895E-2,3.295509517E-2,2.251809463E-2
4.947287816E0,1.853100024E-2,3.508509323E-2,1.932309382E-2
4.952338858E0,8.946000598E-3,3.082509525E-2,1.612809300E-2
4.957389900E0,5.750999786E-3,2.017509378E-2,1.506309398E-2
4.962440941E0,8.946000598E-3,1.272009313E-2,1.506309398E-2
4.967533285E0,1.533600036E-2,7.395093795E-3,1.719309390E-2
4.972584327E0,2.279100008E-2,2.070093527E-3,1.825809292E-2
4.977635368E0,3.557099774E-2,-2.189906314E-3,1.719309390E-2
4.982686410E0,4.835100099E-2,-6.449906621E-3,1.399809401E-2
4.987737452E0,5.793599784E-2,-8.579906076E-3,1.186809409E-2
4.992788493E0,6.539099663E-2,-8.579906076E-3,7.608093787E-3
4.997798233E0,6.965100020E-2,-1.070990600E-2,4.413093906E-3
5.002849275E0,7.391099632E-2,-6.449906621E-3,1.218093792E-3
5.007900316E0,7.391099632E-2,-6.449906621E-3,1.218093792E-3
5.012951358E0,6.432600319E-2,-3.254906274E-3,2.283093752E-3
5.018002400E0,5.367599800E-2,6.330093369E-3,1.218093792E-3
5.023053441E0,4.409100115E-2,1.485009398E-2,1.530938316E-4
5.028103754E0,3.344099969E-2,2.124009468E-2,4.413093906E-3
5.033154796E0,2.279100008E-2,2.230509371E-2,3.348093713E-3
5.038205785E0,1.320600044E-2,2.443509363E-2,2.283093752E-3
5.043256879E0,3.621000098E-3,2.550009452E-2,-3.041906282E-3
5.048307921E0,-9.158999659E-3,2.017509378E-2,-8.366906084E-3
5.053358962E0,-1.874400117E-2,1.911009476E-2,-1.369190589E-2
5.058408025E0,-2.619899996E-2,2.124009468E-2,-1.262690593E-2
5.063459223E0,-3.258899972E-2,2.443509363E-2,-1.475690585E-2
5.068510473E0,-3.471900150E-2,1.911009476E-2,-1.688690670E-2
5.073561723E0,-3.471900150E-2,8.460094221E-3,-2.114690654E-2
5.078612921E0,-2.939400077E-2,-4.319906235E-3,-2.434190549E-2
5.083664118E0,-1.661400124E-2,-1.070990600E-2,-2.434190549E-2
5.088722139E0,-3.834000090E-3,-1.177490689E-2,-2.647190541E-2
5.093773337E0,1.214100048E-2,-1.070990600E-2,-2.647190541E-2
5.098824587E0,2.705099992E-2,-6.449906621E-3,-2.540690638E-2
5.103875837E0,3.983100131E-2,-4.319906235E-3,-2.540690638E-2
5.108926983E0,5.048099905E-2,-1.124906237E-3,-2.327690646E-2
5.113978233E0,5.900099874E-2,-1.124906237E-3,-2.221190557E-2
5.119036150E0,5.793599784E-2,-3.254906274E-3,-2.327690646E-2
5.124087348E0,5.580599979E-2,-4.319906235E-3,-2.434190549E-2
5.129138598E0,4.409100115E-2,-6.449906621E-3,-2.327690646E-2
5.134189796E0,3.131099790E-2,-5.384906661E-3,-1.795190573E-2
5.139240993E0,1.853100024E-2,4.200093914E-3,-1.262690593E-2
5.144292243E0,3.621000098E-3,1.378509402E-2,-1.049690600E-2
5.149334379E0,-1.128899958E-2,1.804509386E-2,-1.049690600E-2
5.154385577E0,-1.874400117E-2,2.550009452E-2,-1.156190597E-2
5.159436827E0,-1.980900019E-2,3.295509517E-2,-1.795190573E-2
5.164488025E0,-2.193900011E-2,3.295509517E-2,-2.647190541E-2
5.169539223E0,-2.087400109E-2,3.508509323E-2,-3.073190711E-2
5.174590473E0,-1.128899958E-2,3.295509517E-2,-3.499190509E-2
5.179641931E0,4.259999841E-4,3.295509517E-2,-3.818690777E-2
5.184693129E0,1.427100040E-2,3.189009428E-2,-4.031690955E-2
5.189744379E0,3.024599887E-2,2.230509371E-2,-4.244690388E-2
5.194795577E0,4.515599832E-2,7.395093795E-3,-5.096690357E-2
5.199846775E0,5.474099889E-2,-6.449906621E-3,-5.735690892E-2
5.204898025E0,6.432600319E-2,-1.496990677E-2,-6.481190771E-2
5.209957296E0,6.752099842E-2,-1.922990568E-2,-7.013690472E-2
5.215008546E0,6.645599753E-2,-1.496990677E-2,-7.333190739E-2
5.220059743E0,6.219599769E-2,-4.319906235E-3,-7.333190739E-2
5.225110941E0,5.793599784E-2,8.460094221E-3,-7.013690472E-2
5.230162191E0,5.261100084E-2,1.485009398E-2,-6.694190949E-2
5.235213389E0,4.515599832E-2,2.017509378E-2,-6.587690860E-2
5.240270629E0,3.557099774E-2,2.656509541E-2,-6.587690860E-2
5.245321879E0,2.918099985E-2,3.082509525E-2,-6.161690503E-2
5.250373077E0,2.385599911E-2,3.508509323E-2,-5.842190981E-2
5.255424327E0,2.172599919E-2,4.041009396E-2,-5.522690713E-2
5.260475525E0,1.853100024E-2,4.680009559E-2,-4.990190268E-2
5.265526775E0,1.640100032E-2,4.786509275E-2,-4.244690388E-2
5.270562191E0,1.853100024E-2,4.467009380E-2,-3.818690777E-2
5.275613441E0,2.492100000E-2,4.147509485E-2,-3.499190509E-2
5.280664639E0,3.344099969E-2,3.615009412E-2,-3.073190711E-2
5.285715889E0,4.302600026E-2,3.508509323E-2,-2.966690622E-2
5.290767087E0,5.261100084E-2,3.508509323E-2,-3.286190331E-2
5.295818285E0,5.367599800E-2,3.189009428E-2,-4.031690955E-2
5.300875837E0,5.474099889E-2,2.656509541E-2,-4.244690388E-2
5.305927087E0,4.835100099E-2,1.698009484E-2,-4.670690745E-2
5.310978285E0,3.770099953E-2,7.395093795E-3,-4.883690923E-2
5.316029535E0,3.663599864E-2,-1.124906237E-3,-4.883690923E-2
5.321080733E0,3.237599880E-2,-3.254906274E-3,-4.564190656E-2
5.326131983E0,2.918099985E-2,-7.514906116E-3,-4.351190478E-2
5.331184639E0,2.172599919E-2,-1.603490487E-2,-4.138190299E-2
5.336235837E0,1.853100024E-2,-2.455490641E-2,-3.712190688E-2
5.341287087E0,1.427100040E-2,-3.307490423E-2,-2.966690622E-2
5.346338285E0,1.107600052E-2,-3.200990707E-2,-1.901690662E-2
5.351389483E0,1.001100056E-2,-2.348990552E-2,-9.431906044E-3
5.356440785E0,5.750999786E-3,-1.390490681E-2,-9.119062452E-4
5.361483858E0,1.490999945E-3,-7.514906116E-3,6.543093827E-3
5.366535108E0,-5.963999778E-3,5.265093409E-3,1.186809409E-2
5.371586306E0,-1.341899950E-2,1.272009313E-2,1.719309390E-2
5.376637556E0,-2.087400109E-2,1.804509386E-2,2.358309366E-2
5.381688754E0,-2.832899988E-2,1.698009484E-2,2.677809447E-2
5.386740004E0,-3.152399883E-2,2.017509378E-2,2.997309342E-2
5.391770316E0,-3.471900150E-2,2.337009460E-2,3.316809237E-2
5.396821514E0,-3.471900150E-2,2.763009444E-2,3.210309148E-2
5.401872764E0,-3.045899980E-2,2.443509363E-2,3.103809431E-2
5.406923962E0,-2.939400077E-2,2.017509378E-2,2.464809455E-2
5.411975212E0,-2.406900004E-2,1.165509317E-2,1.932309382E-2
5.417026410E0,-1.874400117E-2,4.200093914E-3,1.399809401E-2
5.422095629E0,-1.128899958E-2,-1.124906237E-3,7.608093787E-3
5.427146879E0,-1.704000053E-3,-9.644906037E-3,6.543093827E-3
5.432198077E0,7.881000638E-3,-1.496990677E-2,4.413093906E-3
5.437249327E0,1.427100040E-2,-1.922990568E-2,-3.041906282E-3
5.442300525E0,2.385599911E-2,-2.242490463E-2,-4.106906243E-3
5.447351775E0,2.385599911E-2,-2.135990560E-2,-6.236906163E-3
5.452403598E0,2.811599895E-2,-1.390490681E-2,-7.301906124E-3
5.457454796E0,2.918099985E-2,-3.254906274E-3,-8.366906084E-3
5.462506046E0,2.385599911E-2,3.135093488E-3,-1.049690600E-2
5.467557243E0,1.427100040E-2,9.525093250E-3,-1.049690600E-2
5.472608493E0,3.621000098E-3,1.485009398E-2,-1.369190589E-2
5.477659743E0,-1.128899958E-2,2.124009468E-2,-1.262690593E-2
5.482720525E0,-2.513400093E-2,2.550009452E-2,-1.049690600E-2
5.487771723E0,-3.365400061E-2,2.869509533E-2,-6.236906163E-3
5.492822973E0,-4.004400223E-2,3.402009606E-2,-1.976906089E-3
5.497874171E0,-4.536899924E-2,3.295509517E-2,1.218093792E-3
5.502925368E0,-4.536899924E-2,3.295509517E-2,3.348093713E-3
5.507976618E0,-4.323900118E-2,2.976009436E-2,5.478093866E-3
5.513016827E0,-3.897900134E-2,2.230509371E-2,3.348093713E-3
5.518068025E0,-3.258899972E-2,1.485009398E-2,1.218093792E-3
5.523119275E0,-2.406900004E-2,7.395093795E-3,-1.976906089E-3
5.528170473E0,-1.341899950E-2,3.135093488E-3,-5.171906203E-3
5.533221671E0,-1.704000053E-3,2.070093527E-3,-6.236906163E-3
5.538272921E0,1.214100048E-2,-6.449906621E-3,-9.431906044E-3
5.543328962E0,2.492100000E-2,-8.579906076E-3,-1.049690600E-2
5.548380160E0,3.663599864E-2,-5.384906661E-3,-9.431906044E-3
5.553431410E0,4.515599832E-2,-2.189906314E-3,-9.431906044E-3
5.558482608E0,5.048099905E-2,-3.254906274E-3,-9.431906044E-3
5.563533806E0,4.835100099E-2,-5.384906661E-3,-8.366906084E-3
5.568585056E0,4.196099937E-2,-6.449906621E-3,-8.366906084E-3
5.573638285E0,3.344099969E-2,-1.124906237E-3,-8.366906084E-3
5.578689483E0,2.385599911E-2,3.135093488E-3,-1.976906089E-3
5.583740733E0,7.881000638E-3,6.330093369E-3,4.413093906E-3
5.588791931E0,-7.029000204E-3,7.395093795E-3,9.738094173E-3
5.593843129E0,-2.513400093E-2,1.165509317E-2,1.825809292E-2
5.598894379E0,-4.323900118E-2,1.378509402E-2,1.825809292E-2
5.603933910E0,-5.601900071E-2,2.443509363E-2,1.825809292E-2
5.608985108E0,-6.879900396E-2,3.082509525E-2,1.506309398E-2
5.614036358E0,-7.625400275E-2,3.721509501E-2,1.293309405E-2
5.619087556E0,-7.731900364E-2,3.721509501E-2,5.478093866E-3
5.624138806E0,-7.199399918E-2,3.508509323E-2,1.218093792E-3
5.629190004E0,-6.027900055E-2,2.443509363E-2,-3.041906282E-3
5.634240212E0,-3.897900134E-2,8.460094221E-3,-6.236906163E-3
5.639291410E0,-1.341899950E-2,-2.189906314E-3,-9.431906044E-3
5.644342660E0,1.533600036E-2,-1.709990576E-2,-8.366906084E-3
5.649393858E0,4.089599848E-2,-2.881490625E-2,-6.236906163E-3
5.654445108E0,6.432600319E-2,-3.733490407E-2,-5.171906203E-3
5.659496306E0,7.817099988E-2,-4.159490392E-2,-1.976906089E-3
5.664558025E0,8.243099600E-2,-4.159490392E-2,3.348093713E-3
5.669609223E0,8.136600256E-2,-4.265990481E-2,7.608093787E-3
5.674660473E0,7.391099632E-2,-3.839990497E-2,1.612809300E-2
5.679711671E0,5.900099874E-2,-2.881490625E-2,1.932309382E-2
5.684762868E0,3.663599864E-2,-1.390490681E-2,2.358309366E-2
5.689814118E0,1.533600036E-2,7.395093795E-3,2.890809439E-2
5.694874066E0,-5.963999778E-3,2.869509533E-2,3.210309148E-2
5.699925264E0,-2.406900004E-2,4.786509275E-2,3.316809237E-2
5.704976514E0,-4.217400029E-2,6.064509600E-2,3.103809431E-2
5.710027712E0,-5.069399998E-2,7.129509002E-2,2.677809447E-2
5.715078910E0,-5.601900071E-2,7.129509002E-2,2.464809455E-2
5.720130160E0,-5.388899893E-2,7.236009091E-2,2.038809471E-2
5.725168598E0,-4.430400208E-2,7.023008913E-2,1.506309398E-2
5.730219796E0,-3.471900150E-2,5.638509616E-2,7.608093787E-3
5.735271046E0,-2.726400085E-2,4.147509485E-2,1.530938316E-4
5.740322243E0,-1.554899942E-2,2.017509378E-2,-7.301906124E-3
5.745373441E0,-1.704000053E-3,-3.254906274E-3,-1.156190597E-2
5.750424691E0,1.533600036E-2,-2.135990560E-2,-1.156190597E-2
5.755480056E0,2.918099985E-2,-3.307490423E-2,-1.156190597E-2
5.760531254E0,4.302600026E-2,-3.520490602E-2,-1.475690585E-2
5.765582504E0,5.048099905E-2,-3.200990707E-2,-1.475690585E-2
5.770633702E0,5.261100084E-2,-2.881490625E-2,-1.369190589E-2
5.775684900E0,4.941599816E-2,-2.561990544E-2,-1.475690585E-2
5.780736150E0,3.876600042E-2,-1.709990576E-2,-1.582190581E-2
5.785782139E0,2.385599911E-2,-6.449906621E-3,-1.582190581E-2
5.790833337E0,7.881000638E-3,5.265093409E-3,-1.262690593E-2
5.795884587E0,-1.022399962E-2,1.378509402E-2,-8.366906084E-3
5.800935785E0,-3.045899980E-2,2.443509363E-2,-5.171906203E-3
5.805987035E0,-4.962899908E-2,2.763009444E-2,-5.171906203E-3
5.811038233E0,-6.453900039E-2,2.869509533E-2,-6.236906163E-3
5.816080733E0,-7.518900186E-2,2.976009436E-2,-7.301906124E-3
5.821131931E0,-8.477400243E-2,2.869509533E-2,-1.049690600E-2
5.826183181E0,-8.583900332E-2,3.082509525E-2,-1.369190589E-2
5.831234379E0,-8.051399887E-2,3.295509517E-2,-1.688690670E-2
5.836285629E0,-7.412400097E-2,2.976009436E-2,-2.114690654E-2
5.841336827E0,-6.347399950E-2,2.443509363E-2,-2.327690646E-2
5.846399379E0,-4.962899908E-2,2.017509378E-2,-2.327690646E-2
5.851450577E0,-3.152399883E-2,1.272009313E-2,-2.008190565E-2
5.856501827E0,-1.235399954E-2,9.525093250E-3,-1.262690593E-2
5.861553025E0,4.685999826E-3,7.395093795E-3,-8.366906084E-3
5.866604223E0,1.746599935E-2,4.200093914E-3,-1.976906089E-3
5.871655473E0,2.598599903E-2,5.265093409E-3,3.348093713E-3
5.876699118E0,2.705099992E-2,4.200093914E-3,8.673094213E-3
5.881750316E0,2.066100016E-2,-5.990627687E-5,1.399809401E-2
5.886801566E0,8.946000598E-3,-6.449906621E-3,1.719309390E-2
5.891852764E0,-1.022399962E-2,-7.514906116E-3,1.825809292E-2
5.896903962E0,-3.045899980E-2,-3.254906274E-3,2.038809471E-2
5.901955212E0,-5.282400176E-2,2.070093527E-3,1.612809300E-2
5.907014639E0,-7.305900007E-2,1.272009313E-2,1.186809409E-2
5.912065837E0,-9.329400212E-2,2.869509533E-2,6.543093827E-3
5.917117087E0,-1.071389988E-1,4.573509470E-2,1.218093792E-3
5.922168285E0,-1.145939976E-1,6.064509600E-2,-5.171906203E-3
5.927219483E0,-1.156589985E-1,6.916508824E-2,-6.236906163E-3
5.932270733E0,-1.124640033E-1,7.555509359E-2,-9.431906044E-3
5.937362087E0,-9.755399823E-2,7.449009269E-2,-1.262690593E-2
5.942413337E0,-8.051399887E-2,7.023008913E-2,-1.262690593E-2
5.947464535E0,-5.921399966E-2,5.958009511E-2,-1.156190597E-2
5.952515785E0,-3.791400045E-2,4.573509470E-2,-1.369190589E-2
5.957566983E0,-1.874400117E-2,3.189009428E-2,-9.431906044E-3
5.962618233E0,-5.963999778E-3,1.804509386E-2,-3.041906282E-3
5.967633493E0,4.685999826E-3,7.395093795E-3,1.218093792E-3
5.972684691E0,8.946000598E-3,-4.319906235E-3,2.283093752E-3
5.977735941E0,3.621000098E-3,-8.579906076E-3,3.348093713E-3
5.982787191E0,-8.093999699E-3,-2.189906314E-3,4.413093906E-3
5.987838389E0,-2.193900011E-2,1.591509394E-2,5.478093866E-3
5.992889639E0,-3.684899956E-2,4.254009575E-2,7.608093787E-3
5.997925993E0,-5.388899893E-2,6.703509390E-2,1.080309413E-2
6.002977243E0,-6.986399740E-2,9.579008818E-2,1.506309398E-2
6.008028441E0,-7.944899797E-2,1.170900911E-1,1.825809292E-2
6.013079691E0,-8.796899766E-2,1.351950914E-1,2.464809455E-2
6.018130889E0,-9.861899912E-2,1.564950943E-1,2.997309342E-2
6.023182087E0,-1.028790027E-1,1.714050919E-1,3.636309505E-2
6.028241150E0,-1.050089970E-1,1.809900999E-1,4.488309473E-2
6.033292348E0,-1.060739979E-1,1.916400939E-1,5.446809530E-2
6.038343598E0,-1.092690006E-1,2.001601011E-1,6.298809499E-2
6.043394796E0,-1.103340015E-1,2.076150924E-1,6.937809289E-2
6.048445993E0,-1.113990024E-1,2.150700986E-1,7.150809467E-2
6.053497243E0,-1.124640033E-1,2.182651013E-1,7.789809257E-2
6.058546462E0,-1.060739979E-1,2.246550918E-1,8.215808868E-2
6.063597660E0,-9.755399823E-2,2.193301022E-1,8.748309314E-2
6.068648858E0,-8.157899976E-2,2.118750960E-1,9.174308926E-2
6.073700056E0,-5.921399966E-2,1.969650984E-1,8.854809403E-2
6.078751254E0,-3.365400061E-2,1.756650954E-1,8.215808868E-2
6.083802504E0,-1.704000053E-3,1.426500976E-1,7.257309556E-2
6.088858077E0,2.811599895E-2,1.053750888E-1,5.553309619E-2
6.093909275E0,5.580599979E-2,7.449009269E-2,3.529809415E-2
6.098960473E0,8.030100167E-2,4.041009396E-2,1.825809292E-2
6.104011671E0,9.947100282E-2,1.165509317E-2,-1.976906089E-3
6.109062868E0,1.090559959E-1,-1.390490681E-2,-2.434190549E-2
6.114114118E0,1.101209968E-1,-3.094490618E-2,-4.564190656E-2
6.119175473E0,1.026659980E-1,-4.265990481E-2,-6.161690503E-2
6.124226671E0,9.414599836E-2,-5.224490538E-2,-6.800691038E-2
6.129277868E0,7.817099988E-2,-5.330990627E-2,-7.120190561E-2
6.134329066E0,6.006599963E-2,-4.904990643E-2,-6.694190949E-2
6.139380264E0,4.409100115E-2,-3.946490586E-2,-6.055190414E-2
6.144431514E0,3.131099790E-2,-3.307490423E-2,-5.203190446E-2
6.149486827E0,2.066100016E-2,-2.668490633E-2,-4.457690567E-2
6.154538025E0,1.320600044E-2,-2.029490471E-2,-3.712190688E-2
6.159589223E0,6.816000212E-3,-2.029490471E-2,-3.073190711E-2
6.164640421E0,-5.963999778E-3,-1.390490681E-2,-3.073190711E-2
6.169691618E0,-1.874400117E-2,-9.644906037E-3,-2.753690630E-2
6.174742868E0,-3.152399883E-2,-9.644906037E-3,-2.008190565E-2
6.179773493E0,-4.110899940E-2,-1.070990600E-2,-1.156190597E-2
6.184824691E0,-4.962899908E-2,-1.922990568E-2,-9.119062452E-4
6.189875889E0,-5.069399998E-2,-2.668490633E-2,9.738094173E-3
6.194927139E0,-4.962899908E-2,-3.626990691E-2,1.825809292E-2
6.199978337E0,-4.749900103E-2,-4.159490392E-2,2.251809463E-2
6.205029535E0,-3.578399867E-2,-4.798490554E-2,1.932309382E-2
6.210090681E0,-2.300400101E-2,-4.691990465E-2,1.719309390E-2
6.215141827E0,-1.022399962E-2,-5.224490538E-2,9.738094173E-3
6.220193077E0,1.490999945E-3,-5.969990417E-2,2.283093752E-3
6.225244275E0,8.946000598E-3,-6.821990758E-2,-9.431906044E-3
6.230295473E0,1.640100032E-2,-7.567490637E-2,-1.688690670E-2
6.235346723E0,2.066100016E-2,-7.886990905E-2,-2.008190565E-2
6.240394483E0,2.279100008E-2,-7.780490816E-2,-2.008190565E-2
6.245445681E0,2.598599903E-2,-7.673990726E-2,-1.795190573E-2
6.250496931E0,2.492100000E-2,-7.354491204E-2,-1.369190589E-2
6.255548129E0,2.066100016E-2,-7.141491026E-2,-1.156190597E-2
6.260599327E0,1.427100040E-2,-6.608990580E-2,-1.262690593E-2
6.265650525E0,5.750999786E-3,-6.395991147E-2,-1.369190589E-2
6.270696358E0,-7.029000204E-3,-5.650490522E-2,-1.475690585E-2
6.275747556E0,-2.087400109E-2,-4.798490554E-2,-1.369190589E-2
6.280798806E0,-3.152399883E-2,-3.626990691E-2,-6.236906163E-3
6.285850004E0,-4.749900103E-2,-2.135990560E-2,-3.041906282E-3
6.290901202E0,-6.240900233E-2,-1.177490689E-2,5.478093866E-3
6.295952400E0,-7.412400097E-2,-7.514906116E-3,8.673094213E-3
6.300982973E0,-7.838399708E-2,-6.449906621E-3,1.080309413E-2
6.306034223E0,-8.051399887E-2,-6.449906621E-3,1.080309413E-2
6.311085421E0,-7.625400275E-2,-3.254906274E-3,1.080309413E-2
6.316136618E0,-6.773400307E-2,-1.124906237E-3,8.673094213E-3
6.321187816E0,-5.921399966E-2,-2.189906314E-3,4.413093906E-3
6.326239014E0,-4.856400192E-2,-4.319906235E-3,4.413093906E-3
6.331313702E0,-3.791400045E-2,-4.319906235E-3,8.673094213E-3
6.336364900E0,-2.832899988E-2,-6.449906621E-3,8.673094213E-3
6.341416150E0,-1.767900027E-2,-7.514906116E-3,1.186809409E-2
6.346467348E0,-9.158999659E-3,-6.449906621E-3,1.612809300E-2
6.351518546E0,-3.834000090E-3,-4.319906235E-3,1.719309390E-2
6.356569743E0,-5.963999778E-3,-2.189906314E-3,1.612809300E-2
6.361628493E0,-1.128899958E-2,-2.189906314E-3,1.719309390E-2
6.366679691E0,-1.980900019E-2,-6.449906621E-3,1.719309390E-2
6.371730941E0,-3.045899980E-2,-1.124906237E-3,1.825809292E-2
6.376782139E0,-4.536899924E-2,4.200093914E-3,1.399809401E-2
6.381833337E0,-5.708400160E-2,8.460094221E-3,9.738094173E-3
6.386884535E0,-6.666900218E-2,1.378509402E-2,1.218093792E-3
6.391934118E0,-7.412400097E-2,2.230509371E-2,-8.366906084E-3
6.396985316E0,-8.264400065E-2,2.656509541E-2,-1.582190581E-2
6.402036566E0,-8.583900332E-2,2.230509371E-2,-2.540690638E-2
6.407087764E0,-8.690399677E-2,1.698009484E-2,-3.179690987E-2
6.412138962E0,-8.370900154E-2,8.460094221E-3,-3.499190509E-2
6.417190160E0,-8.264400065E-2,-1.124906237E-3,-3.712190688E-2
6.422245212E0,-7.518900186E-2,-1.070990600E-2,-3.605690598E-2
6.427296410E0,-6.879900396E-2,-1.709990576E-2,-3.392690420E-2
6.432347660E0,-5.921399966E-2,-2.561990544E-2,-3.392690420E-2
6.437398858E0,-5.069399998E-2,-2.561990544E-2,-3.286190331E-2
6.442450056E0,-4.323900118E-2,-2.561990544E-2,-2.966690622E-2
6.447501254E0,-3.471900150E-2,-2.987990528E-2,-2.327690646E-2
6.452533858E0,-2.726400085E-2,-2.668490633E-2,-1.688690670E-2
6.457585056E0,-2.087400109E-2,-2.348990552E-2,-9.431906044E-3
6.462636306E0,-1.767900027E-2,-1.603490487E-2,-3.041906282E-3
6.467687504E0,-1.554899942E-2,-7.514906116E-3,2.283093752E-3
6.472738650E0,-1.022399962E-2,-5.384906661E-3,8.673094213E-3
6.477789900E0,-7.029000204E-3,-4.319906235E-3,1.399809401E-2
6.482858546E0,-7.029000204E-3,-5.384906661E-3,2.038809471E-2
6.487909743E0,-7.029000204E-3,-6.449906621E-3,2.784309350E-2
6.492960993E0,-8.093999699E-3,-1.124906237E-3,3.636309505E-2
6.498012191E0,-1.022399962E-2,2.070093527E-3,4.275309294E-2
6.503063389E0,-1.767900027E-2,6.330093369E-3,4.381809384E-2
6.508114587E0,-2.513400093E-2,-5.990627687E-5,4.701309651E-2
6.513147452E0,-3.045899980E-2,-7.514906116E-3,4.062309116E-2
6.518198650E0,-3.578399867E-2,-1.283990685E-2,3.529809415E-2
6.523249848E0,-3.684899956E-2,-1.922990568E-2,2.677809447E-2
6.528301046E0,-3.045899980E-2,-2.455490641E-2,2.038809471E-2
6.533352296E0,-2.513400093E-2,-2.987990528E-2,1.080309413E-2
6.538403493E0,-1.554899942E-2,-3.626990691E-2,3.348093713E-3
6.543459171E0,-2.768999897E-3,-4.159490392E-2,-1.976906089E-3
6.548510368E0,1.427100040E-2,-4.585490376E-2,-6.236906163E-3
6.553561618E0,2.385599911E-2,-4.798490554E-2,-1.156190597E-2
6.558612764E0,3.344099969E-2,-4.904990643E-2,-1.582190581E-2
6.563664014E0,3.663599864E-2,-4.798490554E-2,-1.582190581E-2
6.568715212E0,3.344099969E-2,-4.265990481E-2,-1.582190581E-2
6.573761358E0,2.598599903E-2,-3.946490586E-2,-1.156190597E-2
6.578812556E0,1.427100040E-2,-3.520490602E-2,-6.236906163E-3
6.583863754E0,5.750999786E-3,-2.774990536E-2,-3.041906282E-3
6.588914952E0,-4.898999818E-3,-1.816490479E-2,-4.106906243E-3
6.593966202E0,-1.235399954E-2,-8.579906076E-3,-6.236906163E-3
6.599017400E0,-1.767900027E-2,-4.319906235E-3,-1.049690600E-2
6.604072452E0,-1.874400117E-2,-1.124906237E-3,-1.369190589E-2
6.609123650E0,-1.554899942E-2,1.005093683E-3,-1.901690662E-2
6.614174848E0,-1.448399946E-2,6.330093369E-3,-2.221190557E-2
6.619226046E0,-7.029000204E-3,1.059009321E-2,-2.647190541E-2
6.624277243E0,-1.704000053E-3,1.165509317E-2,-3.073190711E-2
6.629328493E0,6.816000212E-3,1.272009313E-2,-3.392690420E-2
6.634378546E0,1.320600044E-2,1.698009484E-2,-3.925190866E-2
6.639429743E0,1.746599935E-2,1.698009484E-2,-3.925190866E-2
6.644480941E0,2.066100016E-2,1.059009321E-2,-4.138190299E-2
6.649532139E0,2.172599919E-2,2.070093527E-3,-3.925190866E-2
6.654583337E0,1.640100032E-2,-1.603490487E-2,-3.605690598E-2
6.659634535E0,8.946000598E-3,-2.881490625E-2,-3.712190688E-2
6.664758337E0,-6.390000344E-4,-3.626990691E-2,-3.073190711E-2
6.669809535E0,-1.448399946E-2,-3.946490586E-2,-2.434190549E-2
6.674860733E0,-2.193900011E-2,-4.159490392E-2,-1.582190581E-2
6.679911931E0,-2.832899988E-2,-3.520490602E-2,-9.431906044E-3
6.684963129E0,-3.152399883E-2,-2.881490625E-2,-3.041906282E-3
6.690014379E0,-3.258899972E-2,-2.881490625E-2,1.218093792E-3
6.694995577E0,-3.045899980E-2,-2.455490641E-2,3.348093713E-3
6.700046775E0,-2.406900004E-2,-2.348990552E-2,3.348093713E-3
6.705097973E0,-1.980900019E-2,-1.603490487E-2,-1.976906089E-3
6.710149171E0,-1.874400117E-2,-6.449906621E-3,-8.366906084E-3
6.715200421E0,-1.874400117E-2,3.135093488E-3,-1.049690600E-2
6.720251618E0,-1.341899950E-2,9.525093250E-3,-9.431906044E-3
6.725292712E0,-1.022399962E-2,1.272009313E-2,-7.301906124E-3
6.730343910E0,-5.963999778E-3,8.460094221E-3,-4.106906243E-3
6.735395108E0,-1.704000053E-3,6.330093369E-3,-1.976906089E-3
6.740446306E0,2.555999905E-3,3.135093488E-3,-5.171906203E-3
6.745497556E0,5.750999786E-3,1.005093683E-3,-8.366906084E-3
6.750548754E0,3.621000098E-3,-1.124906237E-3,-1.156190597E-2
6.755611879E0,1.490999945E-3,-7.514906116E-3,-1.049690600E-2
6.760663077E0,3.621000098E-3,-1.177490689E-2,-7.301906124E-3
6.765714275E0,2.555999905E-3,-1.070990600E-2,-5.171906203E-3
6.770765473E0,4.685999826E-3,-1.390490681E-2,-4.106906243E-3
6.775816671E0,8.946000598E-3,-1.709990576E-2,-1.976906089E-3
6.780867921E0,1.320600044E-2,-1.709990576E-2,-4.106906243E-3
6.785952608E0,1.746599935E-2,-1.496990677E-2,-1.475690585E-2
6.791003858E0,2.066100016E-2,-1.070990600E-2,-2.434190549E-2
6.796055056E0,2.066100016E-2,-7.514906116E-3,-3.605690598E-2
6.801106254E0,1.640100032E-2,-9.644906037E-3,-4.031690955E-2
6.806157452E0,1.214100048E-2,-1.922990568E-2,-4.457690567E-2
6.811208702E0,1.001100056E-2,-2.774990536E-2,-4.883690923E-2
6.816227296E0,7.881000638E-3,-3.094490618E-2,-4.883690923E-2
6.821278493E0,8.946000598E-3,-3.094490618E-2,-5.096690357E-2
6.826329691E0,1.320600044E-2,-2.987990528E-2,-5.096690357E-2
6.831380889E0,1.320600044E-2,-3.094490618E-2,-5.522690713E-2
6.836432087E0,7.881000638E-3,-3.733490407E-2,-6.268190593E-2
6.841483337E0,-6.390000344E-4,-3.626990691E-2,-7.013690472E-2
6.846531410E0,-1.128899958E-2,-2.668490633E-2,-7.226690650E-2
6.851582608E0,-2.300400101E-2,-1.283990685E-2,-7.226690650E-2
6.856633806E0,-3.045899980E-2,-1.124906237E-3,-7.013690472E-2
6.861685004E0,-3.791400045E-2,8.460094221E-3,-6.800691038E-2
6.866736254E0,-4.536899924E-2,9.525093250E-3,-6.907191128E-2
6.871787452E0,-4.856400192E-2,1.165509317E-2,-6.907191128E-2
6.876837243E0,-4.536899924E-2,1.165509317E-2,-6.907191128E-2
6.881888441E0,-3.897900134E-2,1.272009313E-2,-6.587690860E-2
6.886939639E0,-3.152399883E-2,1.378509402E-2,-6.161690503E-2
6.891990837E0,-2.193900011E-2,1.165509317E-2,-5.629190803E-2
6.897042035E0,-1.128899958E-2,8.460094221E-3,-4.990190268E-2
6.902093285E0,-4.898999818E-3,7.395093795E-3,-4.244690388E-2
6.907140941E0,-1.704000053E-3,5.265093409E-3,-3.712190688E-2
6.912192139E0,-2.768999897E-3,7.395093795E-3,-3.605690598E-2
6.917243337E0,-9.158999659E-3,9.525093250E-3,-3.499190509E-2
6.922294535E0,-1.980900019E-2,9.525093250E-3,-3.179690987E-2
6.927345785E0,-2.726400085E-2,1.272009313E-2,-2.966690622E-2
6.932396983E0,-3.578399867E-2,1.485009398E-2,-2.860190533E-2
6.937461410E0,-4.217400029E-2,1.591509394E-2,-2.966690622E-2
6.942512608E0,-4.217400029E-2,1.698009484E-2,-2.860190533E-2
6.947563806E0,-4.004400223E-2,1.911009476E-2,-3.179690987E-2
6.952615004E0,-3.578399867E-2,1.911009476E-2,-3.392690420E-2
6.957666202E0,-2.619899996E-2,2.017509378E-2,-3.605690598E-2
6.962717452E0,-1.448399946E-2,1.485009398E-2,-3.605690598E-2
6.967770941E0,-5.963999778E-3,1.165509317E-2,-3.499190509E-2
6.972822139E0,6.816000212E-3,9.525093250E-3,-3.179690987E-2
6.977873337E0,1.427100040E-2,-5.990627687E-5,-3.073190711E-2
6.982924535E0,1.533600036E-2,-9.644906037E-3,-2.753690630E-2
6.987975733E0,1.853100024E-2,-1.709990576E-2,-2.327690646E-2
6.993026983E0,1.320600044E-2,-2.455490641E-2,-2.114690654E-2
6.998068233E0,-2.768999897E-3,-2.348990552E-2,-2.114690654E-2
7.003119431E0,-2.300400101E-2,-2.455490641E-2,-2.221190557E-2
7.008170629E0,-4.323900118E-2,-3.200990707E-2,-2.114690654E-2
7.013221827E0,-6.347399950E-2,-3.626990691E-2,-2.221190557E-2
7.018273077E0,-7.944899797E-2,-4.052990675E-2,-2.327690646E-2
7.023324223E0,-9.116400033E-2,-4.265990481E-2,-2.647190541E-2
7.028375785E0,-9.755399823E-2,-4.372490570E-2,-3.392690420E-2
7.033426983E0,-9.755399823E-2,-4.585490376E-2,-4.244690388E-2
7.038478181E0,-9.329400212E-2,-4.798490554E-2,-5.416190624E-2
7.043529379E0,-8.157899976E-2,-5.224490538E-2,-5.842190981E-2
7.048580629E0,-6.666900218E-2,-5.863490701E-2,-6.161690503E-2
7.053631827E0,-5.282400176E-2,-6.395991147E-2,-6.268190593E-2
7.058673233E0,-3.471900150E-2,-7.034990937E-2,-5.842190981E-2
7.063724379E0,-1.554899942E-2,-7.460991293E-2,-5.522690713E-2
7.068775525E0,2.555999905E-3,-7.993490994E-2,-5.096690357E-2
7.073826671E0,1.640100032E-2,-8.738990873E-2,-4.564190656E-2
7.078877868E0,2.598599903E-2,-8.525990695E-2,-3.818690777E-2
7.083929066E0,2.705099992E-2,-8.632490784E-2,-3.073190711E-2
7.088992452E0,2.598599903E-2,-8.419490606E-2,-2.221190557E-2
7.094043598E0,1.853100024E-2,-7.354491204E-2,-1.475690585E-2
7.099094743E0,1.107600052E-2,-5.969990417E-2,-8.366906084E-3
7.104145889E0,4.685999826E-3,-4.585490376E-2,-9.119062452E-4
7.109197087E0,-3.834000090E-3,-3.200990707E-2,1.530938316E-4
7.114248233E0,-1.022399962E-2,-2.135990560E-2,1.218093792E-3
7.119293910E0,-1.235399954E-2,-9.644906037E-3,2.283093752E-3
7.124345108E0,-1.341899950E-2,2.070093527E-3,1.218093792E-3
7.129396254E0,-1.022399962E-2,1.059009321E-2,-9.119062452E-4
7.134447400E0,-4.898999818E-3,1.272009313E-2,-4.106906243E-3
7.139498546E0,3.621000098E-3,1.378509402E-2,-8.366906084E-3
7.144549743E0,1.320600044E-2,9.525093250E-3,-9.431906044E-3
7.149605577E0,2.492100000E-2,4.200093914E-3,-1.369190589E-2
7.154656775E0,3.450600058E-2,-3.254906274E-3,-1.795190573E-2
7.159707921E0,4.728600010E-2,-1.070990600E-2,-1.582190581E-2
7.164759066E0,6.006599963E-2,-1.709990576E-2,-1.901690662E-2
7.169810212E0,7.178100199E-2,-2.348990552E-2,-1.901690662E-2
7.174861410E0,8.030100167E-2,-2.455490641E-2,-1.369190589E-2
7.179916254E0,8.456099778E-2,-2.455490641E-2,-1.262690593E-2
7.184967452E0,8.562599868E-2,-1.922990568E-2,-1.156190597E-2
7.190018598E0,8.882100135E-2,-7.514906116E-3,-7.301906124E-3
7.195069743E0,8.882100135E-2,5.265093409E-3,-5.171906203E-3
7.200120889E0,8.669099957E-2,1.911009476E-2,-9.431906044E-3
7.205172087E0,8.349599689E-2,2.976009436E-2,-1.582190581E-2
7.210209118E0,8.136600256E-2,3.402009606E-2,-2.327690646E-2
7.215260264E0,7.497599721E-2,3.508509323E-2,-2.966690622E-2
7.220311410E0,6.645599753E-2,4.041009396E-2,-3.499190509E-2
7.225362556E0,5.474099889E-2,3.721509501E-2,-4.138190299E-2
7.230413754E0,4.835100099E-2,3.615009412E-2,-4.670690745E-2
7.235464900E0,3.983100131E-2,3.189009428E-2,-4.883690923E-2
7.240518233E0,3.131099790E-2,2.124009468E-2,-5.309690535E-2
7.245569379E0,2.279100008E-2,8.460094221E-3,-5.309690535E-2
7.250620525E0,1.427100040E-2,-5.384906661E-3,-5.203190446E-2
7.255671671E0,1.001100056E-2,-1.496990677E-2,-4.990190268E-2
7.260722868E0,1.107600052E-2,-2.135990560E-2,-4.457690567E-2
7.265774014E0,1.320600044E-2,-2.561990544E-2,-4.138190299E-2
7.270815473E0,1.853100024E-2,-2.668490633E-2,-3.818690777E-2
7.275866671E0,2.492100000E-2,-1.922990568E-2,-3.499190509E-2
7.280917816E0,3.344099969E-2,-1.177490689E-2,-3.392690420E-2
7.285968962E0,4.196099937E-2,-8.579906076E-3,-3.392690420E-2
7.291020108E0,4.302600026E-2,-5.990627687E-5,-3.499190509E-2
7.296071306E0,3.876600042E-2,5.265093409E-3,-3.392690420E-2
7.301148910E0,3.450600058E-2,1.272009313E-2,-3.179690987E-2
7.306200056E0,2.918099985E-2,1.804509386E-2,-2.647190541E-2
7.311251202E0,2.279100008E-2,2.337009460E-2,-2.008190565E-2
7.316302400E0,1.959599927E-2,2.656509541E-2,-1.475690585E-2
7.321353546E0,1.640100032E-2,2.550009452E-2,-9.431906044E-3
7.326404691E0,1.640100032E-2,2.230509371E-2,-7.301906124E-3
7.331457712E0,1.853100024E-2,1.591509394E-2,-8.366906084E-3
7.336508858E0,1.746599935E-2,1.059009321E-2,-8.366906084E-3
7.341560004E0,1.746599935E-2,8.460094221E-3,-1.369190589E-2
7.346611202E0,1.746599935E-2,1.059009321E-2,-1.795190573E-2
7.351662348E0,1.640100032E-2,1.698009484E-2,-1.901690662E-2
7.356713493E0,1.320600044E-2,1.698009484E-2,-2.008190565E-2
7.361763129E0,7.881000638E-3,1.804509386E-2,-1.901690662E-2
7.366814275E0,1.490999945E-3,1.165509317E-2,-2.114690654E-2
7.371865421E0,4.259999841E-4,4.200093914E-3,-1.901690662E-2
7.376916566E0,2.555999905E-3,-3.254906274E-3,-1.688690670E-2
7.381967764E0,4.685999826E-3,-6.449906621E-3,-1.369190589E-2
7.387018910E0,2.555999905E-3,-1.283990685E-2,-1.049690600E-2
7.392027816E0,5.750999786E-3,-1.496990677E-2,-6.236906163E-3
7.397078910E0,8.946000598E-3,-1.603490487E-2,-4.106906243E-3
7.402130056E0,8.946000598E-3,-1.070990600E-2,-9.119062452E-4
7.407181254E0,1.107600052E-2,-7.514906116E-3,4.413093906E-3
7.412232400E0,1.427100040E-2,-1.124906237E-3,5.478093866E-3
7.417283546E0,1.959599927E-2,3.135093488E-3,8.673094213E-3
7.422380108E0,2.492100000E-2,6.330093369E-3,1.080309413E-2
7.427431254E0,3.131099790E-2,7.395093795E-3,8.673094213E-3
7.432482400E0,3.983100131E-2,1.059009321E-2,9.738094173E-3
7.437533598E0,4.728600010E-2,1.378509402E-2,1.186809409E-2
7.442584743E0,5.367599800E-2,1.591509394E-2,1.293309405E-2
7.447635889E0,5.048099905E-2,1.485009398E-2,1.293309405E-2
7.452658389E0,4.835100099E-2,1.378509402E-2,1.506309398E-2
7.457709587E0,4.409100115E-2,1.485009398E-2,1.186809409E-2
7.462760733E0,4.089599848E-2,6.330093369E-3,9.738094173E-3
7.467811879E0,3.450600058E-2,3.135093488E-3,8.673094213E-3
7.472863077E0,2.705099992E-2,5.265093409E-3,8.673094213E-3
7.477914223E0,2.598599903E-2,4.200093914E-3,1.080309413E-2
7.482983806E0,2.279100008E-2,1.005093683E-3,7.608093787E-3
7.488034952E0,2.385599911E-2,-5.384906661E-3,-9.119062452E-4
7.493086098E0,2.492100000E-2,-1.390490681E-2,-1.976906089E-3
7.498137296E0,2.492100000E-2,-2.561990544E-2,-5.171906203E-3
7.503188441E0,2.811599895E-2,-3.520490602E-2,-9.431906044E-3
7.508239587E0,2.918099985E-2,-4.265990481E-2,-1.475690585E-2
7.513287087E0,3.024599887E-2,-4.585490376E-2,-2.114690654E-2
7.518338233E0,3.024599887E-2,-3.946490586E-2,-2.327690646E-2
7.523389379E0,2.918099985E-2,-3.094490618E-2,-2.647190541E-2
7.528440525E0,3.450600058E-2,-1.496990677E-2,-2.540690638E-2
7.533491723E0,3.557099774E-2,-2.189906314E-3,-2.647190541E-2
7.538542868E0,3.876600042E-2,5.265093409E-3,-2.966690622E-2
7.543600577E0,3.770099953E-2,1.165509317E-2,-2.966690622E-2
7.548651775E0,3.344099969E-2,1.059009321E-2,-2.966690622E-2
7.553702921E0,2.918099985E-2,8.460094221E-3,-2.966690622E-2
7.558754118E0,2.705099992E-2,6.330093369E-3,-2.540690638E-2
7.563805264E0,2.385599911E-2,7.395093795E-3,-2.008190565E-2
7.568856410E0,2.172599919E-2,8.460094221E-3,-1.156190597E-2
7.573897712E0,1.853100024E-2,8.460094221E-3,-7.301906124E-3
7.578948858E0,2.066100016E-2,7.395093795E-3,-4.106906243E-3
7.584000004E0,2.385599911E-2,1.059009321E-2,-1.976906089E-3
7.589051150E0,2.918099985E-2,1.485009398E-2,1.218093792E-3
7.594102348E0,3.024599887E-2,2.124009468E-2,1.530938316E-4
7.599153493E0,3.344099969E-2,2.869509533E-2,1.218093792E-3
7.604224223E0,3.024599887E-2,3.508509323E-2,1.530938316E-4
7.609275368E0,2.385599911E-2,3.934509307E-2,-9.119062452E-4
7.614326514E0,1.533600036E-2,3.934509307E-2,-3.041906282E-3
7.619377660E0,3.621000098E-3,3.721509501E-2,-5.171906203E-3
7.624428858E0,-3.834000090E-3,3.402009606E-2,-6.236906163E-3
7.629480056E0,-1.128899958E-2,3.295509517E-2,-7.301906124E-3
7.634563129E0,-1.554899942E-2,3.295509517E-2,-8.366906084E-3
7.639614327E0,-1.554899942E-2,3.295509517E-2,-1.369190589E-2
7.644665473E0,-1.448399946E-2,2.337009460E-2,-1.795190573E-2
7.649716618E0,-9.158999659E-3,1.591509394E-2,-2.327690646E-2
7.654767764E0,-6.390000344E-4,9.525093250E-3,-2.860190533E-2
7.659818962E0,1.320600044E-2,1.005093683E-3,-2.753690630E-2
7.664830108E0,2.918099985E-2,-3.254906274E-3,-2.753690630E-2
7.669881306E0,4.196099937E-2,-1.070990600E-2,-2.860190533E-2
7.674932452E0,5.261100084E-2,-1.922990568E-2,-3.179690987E-2
7.679983598E0,5.687100068E-2,-2.348990552E-2,-3.392690420E-2
7.685034743E0,5.367599800E-2,-2.668490633E-2,-3.286190331E-2
7.690085941E0,4.835100099E-2,-2.455490641E-2,-2.966690622E-2
7.695128233E0,4.089599848E-2,-1.922990568E-2,-2.647190541E-2
7.700179431E0,3.024599887E-2,-1.070990600E-2,-2.327690646E-2
7.705230577E0,2.279100008E-2,1.005093683E-3,-2.114690654E-2
7.710281723E0,1.427100040E-2,1.378509402E-2,-2.114690654E-2
7.715332921E0,5.750999786E-3,2.763009444E-2,-2.114690654E-2
7.720384066E0,4.259999841E-4,4.254009575E-2,-2.221190557E-2
7.725437973E0,4.259999841E-4,5.532009527E-2,-2.221190557E-2
7.730489171E0,-1.704000053E-3,5.958009511E-2,-2.008190565E-2
7.735540316E0,5.750999786E-3,5.745009333E-2,-1.901690662E-2
7.740591514E0,1.640100032E-2,5.319009349E-2,-1.688690670E-2
7.745642660E0,2.811599895E-2,4.786509275E-2,-1.262690593E-2
7.750693806E0,4.089599848E-2,4.041009396E-2,-1.156190597E-2
7.755761098E0,4.941599816E-2,2.976009436E-2,-1.049690600E-2
7.760812296E0,5.580599979E-2,1.804509386E-2,-8.366906084E-3
7.765863389E0,5.793599784E-2,1.272009313E-2,-7.301906124E-3
7.770914535E0,6.219599769E-2,1.272009313E-2,-5.171906203E-3
7.775965733E0,6.539099663E-2,1.272009313E-2,-5.171906203E-3
7.781016879E0,6.539099663E-2,1.272009313E-2,-7.301906124E-3
7.786057035E0,6.219599769E-2,1.059009321E-2,-4.106906243E-3
7.791108181E0,5.580599979E-2,1.378509402E-2,-1.976906089E-3
7.796159327E0,4.941599816E-2,2.124009468E-2,-9.119062452E-4
7.801210473E0,4.835100099E-2,2.976009436E-2,1.218093792E-3
7.806261671E0,4.302600026E-2,3.402009606E-2,6.543093827E-3
7.811312816E0,4.089599848E-2,4.041009396E-2,9.738094173E-3
7.816358285E0,4.409100115E-2,4.467009380E-2,1.293309405E-2
7.821409483E0,4.196099937E-2,4.893009365E-2,1.399809401E-2
7.826460629E0,3.024599887E-2,4.999509454E-2,1.186809409E-2
7.831511775E0,1.959599927E-2,4.573509470E-2,1.506309398E-2
7.836562973E0,4.685999826E-3,4.893009365E-2,1.612809300E-2
7.841614118E0,-5.963999778E-3,5.532009527E-2,1.932309382E-2
7.846681618E0,-2.193900011E-2,5.745009333E-2,1.932309382E-2
7.851732816E0,-3.791400045E-2,5.106009543E-2,1.825809292E-2
7.856783962E0,-5.069399998E-2,4.573509470E-2,1.506309398E-2
7.861835108E0,-5.495399982E-2,3.934509307E-2,1.506309398E-2
7.866886254E0,-5.175900087E-2,3.402009606E-2,1.719309390E-2
7.871937452E0,-4.430400208E-2,2.869509533E-2,2.038809471E-2
7.876997712E0,-2.939400077E-2,2.443509363E-2,2.571309358E-2
7.882048858E0,-1.341899950E-2,1.591509394E-2,2.784309350E-2
7.887100056E0,-2.768999897E-3,1.272009313E-2,3.529809415E-2
7.892151202E0,1.107600052E-2,1.165509317E-2,3.742809594E-2
7.897202348E0,1.746599935E-2,1.165509317E-2,4.062309116E-2
7.902253493E0,1.533600036E-2,1.485009398E-2,4.488309473E-2
7.907287868E0,1.214100048E-2,2.124009468E-2,4.807809740E-2
7.912339066E0,4.259999841E-4,2.869509533E-2,4.488309473E-2
7.917390212E0,-1.341899950E-2,3.189009428E-2,3.742809594E-2
7.922441358E0,-3.152399883E-2,3.402009606E-2,3.103809431E-2
7.927492556E0,-4.856400192E-2,2.976009436E-2,2.784309350E-2
7.932543702E0,-6.773400307E-2,2.017509378E-2,2.677809447E-2
7.937600473E0,-8.264400065E-2,1.272009313E-2,2.571309358E-2
7.942651671E0,-9.116400033E-2,-5.990627687E-5,2.784309350E-2
7.947702764E0,-9.009899944E-2,-8.579906076E-3,2.784309350E-2
7.952753910E0,-8.051399887E-2,-1.603490487E-2,3.103809431E-2
7.957805108E0,-6.134400144E-2,-1.922990568E-2,3.210309148E-2
7.962856254E0,-3.897900134E-2,-1.816490479E-2,3.423309326E-2
7.967966150E0,-1.554899942E-2,-1.496990677E-2,3.316809237E-2
7.973017296E0,1.490999945E-3,-8.579906076E-3,2.997309342E-2
7.978068441E0,1.320600044E-2,-5.990627687E-5,3.103809431E-2
7.983119587E0,1.746599935E-2,1.272009313E-2,3.636309505E-2
7.988170785E0,8.946000598E-3,2.230509371E-2,3.955809027E-2
7.993221983E0,-3.834000090E-3,2.763009444E-2,4.168809205E-2
7.998204223E0,-1.874400117E-2,2.550009452E-2,4.701309651E-2
8.003255421E0,-3.897900134E-2,3.082509525E-2,5.020809174E-2
8.008306566E0,-5.814899877E-2,3.508509323E-2,4.488309473E-2
8.013357712E0,-7.199399918E-2,3.721509501E-2,4.168809205E-2
8.018408858E0,-8.477400243E-2,4.041009396E-2,3.955809027E-2
8.023460056E0,-9.009899944E-2,4.254009575E-2,3.742809594E-2
8.028517868E0,-9.009899944E-2,4.360509291E-2,3.529809415E-2
8.033569066E0,-8.796899766E-2,4.147509485E-2,3.423309326E-2
8.038620212E0,-8.157899976E-2,4.254009575E-2,3.210309148E-2
8.043671358E0,-6.986399740E-2,4.041009396E-2,2.890809439E-2
8.048722504E0,-5.601900071E-2,3.721509501E-2,2.571309358E-2
8.053773702E0,-4.217400029E-2,3.508509323E-2,2.677809447E-2
8.058815421E0,-2.832899988E-2,2.763009444E-2,2.571309358E-2
8.063866618E0,-1.448399946E-2,1.911009476E-2,2.358309366E-2
8.068917816E0,-3.834000090E-3,9.525093250E-3,2.145309374E-2
8.073969014E0,7.881000638E-3,2.070093527E-3,1.932309382E-2
8.079020264E0,1.001100056E-2,-3.254906274E-3,1.825809292E-2
8.084071462E0,6.816000212E-3,-4.319906235E-3,1.612809300E-2
8.089127348E0,4.259999841E-4,-4.319906235E-3,1.932309382E-2
8.094178546E0,-8.093999699E-3,1.005093683E-3,2.464809455E-2
8.099229743E0,-1.767900027E-2,9.525093250E-3,3.103809431E-2
8.104280993E0,-2.726400085E-2,1.485009398E-2,4.062309116E-2
8.109332139E0,-4.004400223E-2,2.017509378E-2,4.594809562E-2
8.114383389E0,-5.069399998E-2,2.230509371E-2,5.233809352E-2
8.119448858E0,-5.921399966E-2,2.656509541E-2,5.553309619E-2
8.124500056E0,-6.134400144E-2,3.508509323E-2,5.766309053E-2
8.129551254E0,-6.240900233E-2,4.147509485E-2,5.979309231E-2
8.134602504E0,-5.921399966E-2,4.467009380E-2,5.979309231E-2
8.139653702E0,-5.495399982E-2,4.147509485E-2,5.979309231E-2
8.144704900E0,-4.430400208E-2,2.976009436E-2,6.298809499E-2
8.149733702E0,-3.365400061E-2,2.337009460E-2,6.511808932E-2
8.154784900E0,-1.874400117E-2,1.165509317E-2,6.405308843E-2
8.159836098E0,-4.898999818E-3,3.135093488E-3,5.872809142E-2
8.164887296E0,4.259999841E-4,-9.644906037E-3,5.127309263E-2
8.169938546E0,2.555999905E-3,-2.348990552E-2,4.701309651E-2
8.174989743E0,-1.704000053E-3,-2.881490625E-2,4.275309294E-2
8.180057556E0,-5.963999778E-3,-2.668490633E-2,4.275309294E-2
8.185108754E0,-1.022399962E-2,-2.348990552E-2,4.594809562E-2
8.190159952E0,-2.087400109E-2,-2.242490463E-2,4.914309084E-2
8.195211150E0,-2.619899996E-2,-1.922990568E-2,5.446809530E-2
8.200262400E0,-2.832899988E-2,-1.603490487E-2,5.553309619E-2
8.205313598E0,-2.832899988E-2,-1.496990677E-2,5.446809530E-2
8.210349639E0,-3.045899980E-2,-1.496990677E-2,5.659809709E-2
8.215400837E0,-3.045899980E-2,-1.390490681E-2,5.766309053E-2
8.220452035E0,-2.832899988E-2,-1.283990685E-2,5.553309619E-2
8.225503233E0,-2.726400085E-2,-1.603490487E-2,5.659809709E-2
8.230554483E0,-2.513400093E-2,-2.242490463E-2,5.659809709E-2
8.235605681E0,-2.406900004E-2,-2.348990552E-2,5.340309441E-2
8.240663181E0,-2.193900011E-2,-2.881490625E-2,5.340309441E-2
8.245714379E0,-2.087400109E-2,-2.987990528E-2,4.701309651E-2
8.250765577E0,-1.661400124E-2,-2.987990528E-2,3.955809027E-2
8.255816775E0,-1.448399946E-2,-2.455490641E-2,3.316809237E-2
8.260868025E0,-1.235399954E-2,-2.029490471E-2,2.890809439E-2
8.265919223E0,-7.029000204E-3,-1.496990677E-2,2.464809455E-2
8.270971410E0,-3.834000090E-3,-7.514906116E-3,2.038809471E-2
8.276022608E0,-6.390000344E-4,-3.254906274E-3,2.038809471E-2
8.281073806E0,4.685999826E-3,1.005093683E-3,2.145309374E-2
8.286125004E0,5.750999786E-3,1.005093683E-3,2.145309374E-2
8.291176254E0,3.621000098E-3,-4.319906235E-3,2.358309366E-2
8.296227400E0,-6.390000344E-4,-1.177490689E-2,2.677809447E-2
8.301306983E0,-7.029000204E-3,-2.029490471E-2,3.103809431E-2
8.306358181E0,-1.661400124E-2,-2.987990528E-2,3.529809415E-2
8.311409379E0,-2.406900004E-2,-3.413990512E-2,3.636309505E-2
8.316460629E0,-2.939400077E-2,-3.307490423E-2,3.955809027E-2
8.321511827E0,-3.045899980E-2,-2.668490633E-2,3.955809027E-2
8.326563025E0,-3.365400061E-2,-2.135990560E-2,3.636309505E-2
8.331587504E0,-3.578399867E-2,-2.029490471E-2,3.210309148E-2
8.336638702E0,-3.897900134E-2,-2.135990560E-2,2.358309366E-2
8.341689952E0,-4.217400029E-2,-2.455490641E-2,1.932309382E-2
8.346741150E0,-4.536899924E-2,-2.774990536E-2,1.612809300E-2
8.351792348E0,-4.749900103E-2,-2.561990544E-2,1.506309398E-2
8.356843598E0,-4.643400013E-2,-2.987990528E-2,1.506309398E-2
8.361898181E0,-4.430400208E-2,-3.413990512E-2,1.186809409E-2
8.366949379E0,-4.004400223E-2,-3.626990691E-2,1.080309413E-2
8.372000629E0,-3.258899972E-2,-3.307490423E-2,1.186809409E-2
8.377051827E0,-2.300400101E-2,-2.881490625E-2,1.293309405E-2
8.382103025E0,-1.128899958E-2,-2.987990528E-2,1.719309390E-2
8.387154223E0,-2.768999897E-3,-2.242490463E-2,1.932309382E-2
8.392195941E0,7.881000638E-3,-1.603490487E-2,2.677809447E-2
8.397247139E0,1.427100040E-2,-1.496990677E-2,3.529809415E-2
8.402298337E0,1.746599935E-2,-1.390490681E-2,4.381809384E-2
8.407349587E0,2.066100016E-2,-1.070990600E-2,5.340309441E-2
8.412400785E0,1.746599935E-2,-9.644906037E-3,5.872809142E-2
8.417451983E0,8.946000598E-3,-1.070990600E-2,6.192309409E-2
8.422511202E0,-6.390000344E-4,-8.579906076E-3,6.405308843E-2
8.427562400E0,-1.235399954E-2,-6.449906621E-3,6.192309409E-2
8.432613650E0,-2.513400093E-2,-6.449906621E-3,5.872809142E-2
8.437664848E0,-3.471900150E-2,-7.514906116E-3,5.659809709E-2
8.442716046E0,-4.110899940E-2,-8.579906076E-3,5.233809352E-2
8.447767243E0,-4.110899940E-2,-1.070990600E-2,4.594809562E-2
8.452819118E0,-3.578399867E-2,-1.390490681E-2,3.849309683E-2
8.457870316E0,-2.619899996E-2,-2.029490471E-2,2.890809439E-2
8.462921566E0,-1.554899942E-2,-2.455490641E-2,2.038809471E-2
8.467972764E0,-1.704000053E-3,-3.094490618E-2,1.293309405E-2
8.473023962E0,1.107600052E-2,-4.265990481E-2,1.080309413E-2
8.478075160E0,2.279100008E-2,-5.011490732E-2,9.738094173E-3
8.483113233E0,3.344099969E-2,-5.330990627E-2,1.080309413E-2
8.488164431E0,4.515599832E-2,-5.224490538E-2,1.612809300E-2
8.493215681E0,4.941599816E-2,-5.224490538E-2,1.825809292E-2
8.498266879E0,4.941599816E-2,-5.117990449E-2,2.251809463E-2
8.503318077E0,4.622099921E-2,-4.372490570E-2,2.571309358E-2
8.508369275E0,4.089599848E-2,-3.839990497E-2,3.103809431E-2
8.513391046E0,3.450600058E-2,-3.200990707E-2,3.423309326E-2
8.518442243E0,2.705099992E-2,-2.774990536E-2,3.316809237E-2
8.523493493E0,1.853100024E-2,-2.348990552E-2,3.210309148E-2
8.528544691E0,1.214100048E-2,-1.816490479E-2,3.103809431E-2
8.533595889E0,8.946000598E-3,-1.177490689E-2,2.677809447E-2
8.538647087E0,6.816000212E-3,-6.449906621E-3,2.571309358E-2
8.543700473E0,5.750999786E-3,-5.990627687E-5,2.251809463E-2
8.548751671E0,6.816000212E-3,3.135093488E-3,2.038809471E-2
8.553802868E0,1.320600044E-2,6.330093369E-3,1.612809300E-2
8.558854066E0,1.853100024E-2,5.265093409E-3,8.673094213E-3
8.563905264E0,2.705099992E-2,-1.124906237E-3,1.080309413E-2
8.568956514E0,3.237599880E-2,-3.254906274E-3,7.608093787E-3
8.574041306E0,3.983100131E-2,-2.189906314E-3,6.543093827E-3
8.579092504E0,4.728600010E-2,-5.990627687E-5,1.080309413E-2
8.584143754E0,5.154599994E-2,3.135093488E-3,1.293309405E-2
8.589194952E0,5.687100068E-2,4.200093914E-3,1.719309390E-2
8.594246150E0,5.900099874E-2,8.460094221E-3,1.825809292E-2
8.599297348E0,6.326100230E-2,1.272009313E-2,1.932309382E-2
8.604347660E0,6.219599769E-2,1.591509394E-2,1.825809292E-2
8.609398858E0,5.900099874E-2,2.124009468E-2,1.293309405E-2
8.614450108E0,5.261100084E-2,2.337009460E-2,6.543093827E-3
8.619501306E0,4.622099921E-2,2.550009452E-2,3.348093713E-3
8.624552504E0,3.663599864E-2,2.550009452E-2,1.218093792E-3
8.629603702E0,2.811599895E-2,2.337009460E-2,2.283093752E-3
8.634619535E0,1.640100032E-2,1.591509394E-2,1.530938316E-4
8.639670733E0,2.555999905E-3,1.059009321E-2,-9.119062452E-4
8.644721931E0,-8.093999699E-3,1.005093683E-3,-3.041906282E-3
8.649773181E0,-1.874400117E-2,-7.514906116E-3,-7.301906124E-3
8.654824379E0,-2.193900011E-2,-9.644906037E-3,-7.301906124E-3
8.659875577E0,-2.300400101E-2,-9.644906037E-3,-4.106906243E-3
8.664962504E0,-1.661400124E-2,-1.124906237E-3,1.530938316E-4
8.670013702E0,-4.898999818E-3,4.200093914E-3,2.283093752E-3
8.675064952E0,1.533600036E-2,5.265093409E-3,3.348093713E-3
8.680116150E0,3.344099969E-2,1.165509317E-2,5.478093866E-3
8.685167348E0,5.048099905E-2,1.911009476E-2,2.283093752E-3
8.690218546E0,6.645599753E-2,2.550009452E-2,4.413093906E-3
8.695266150E0,7.817099988E-2,2.656509541E-2,5.478093866E-3
8.700317348E0,8.349599689E-2,2.337009460E-2,7.608093787E-3
8.705368546E0,8.243099600E-2,2.124009468E-2,7.608093787E-3
8.710419796E0,7.604099810E-2,1.804509386E-2,7.608093787E-3
8.715470993E0,6.432600319E-2,1.378509402E-2,8.673094213E-3
8.720522191E0,4.941599816E-2,1.165509317E-2,4.413093906E-3
8.725581827E0,3.344099969E-2,1.272009313E-2,4.413093906E-3
8.730633025E0,1.746599935E-2,1.272009313E-2,1.530938316E-4
8.735684223E0,-2.768999897E-3,8.460094221E-3,-4.106906243E-3
8.740735421E0,-1.341899950E-2,1.165509317E-2,-1.156190597E-2
8.745786671E0,-2.087400109E-2,1.272009313E-2,-1.795190573E-2
8.750837868E0,-2.513400093E-2,2.017509378E-2,-2.434190549E-2
8.755881671E0,-2.406900004E-2,2.656509541E-2,-3.073190711E-2
8.760932868E0,-2.300400101E-2,2.550009452E-2,-3.605690598E-2
8.765984066E0,-1.554899942E-2,2.017509378E-2,-4.138190299E-2
8.771035264E0,-7.029000204E-3,8.460094221E-3,-4.564190656E-2
8.776086514E0,4.685999826E-3,-3.254906274E-3,-4.564190656E-2
8.781137712E0,1.214100048E-2,-1.283990685E-2,-4.777190834E-2
8.786190316E0,2.492100000E-2,-2.029490471E-2,-4.564190656E-2
8.791241514E0,3.557099774E-2,-2.774990536E-2,-3.925190866E-2
8.796292712E0,4.302600026E-2,-3.200990707E-2,-3.499190509E-2
8.801343910E0,4.835100099E-2,-3.094490618E-2,-3.073190711E-2
8.806395160E0,4.515599832E-2,-2.561990544E-2,-2.647190541E-2
8.811446358E0,4.089599848E-2,-1.816490479E-2,-1.901690662E-2
8.816535733E0,3.237599880E-2,-4.319906235E-3,-1.582190581E-2
8.821586879E0,2.172599919E-2,1.165509317E-2,-1.156190597E-2
8.826638129E0,1.107600052E-2,2.550009452E-2,-4.106906243E-3
8.831689327E0,-6.390000344E-4,3.828009591E-2,1.530938316E-4
8.836740525E0,-9.158999659E-3,4.999509454E-2,5.478093866E-3
8.841791723E0,-1.661400124E-2,5.851509422E-2,9.738094173E-3
8.846797556E0,-2.300400101E-2,6.384009123E-2,1.612809300E-2
8.851848754E0,-2.300400101E-2,6.277509034E-2,2.358309366E-2
8.856900004E0,-1.874400117E-2,5.212509632E-2,2.677809447E-2
8.861951202E0,-1.235399954E-2,4.254009575E-2,2.677809447E-2
8.867002452E0,-1.704000053E-3,2.976009436E-2,2.997309342E-2
8.872053598E0,8.946000598E-3,2.337009460E-2,2.997309342E-2
8.877083025E0,1.746599935E-2,1.804509386E-2,2.677809447E-2
8.882134223E0,2.492100000E-2,1.165509317E-2,2.038809471E-2
8.887185421E0,3.131099790E-2,-1.124906237E-3,1.612809300E-2
8.892236618E0,3.344099969E-2,-9.644906037E-3,9.738094173E-3
8.897287816E0,3.237599880E-2,-1.922990568E-2,5.478093866E-3
8.902339066E0,3.024599887E-2,-2.881490625E-2,1.530938316E-4
8.907418389E0,2.705099992E-2,-3.626990691E-2,-4.106906243E-3
8.912469587E0,2.705099992E-2,-4.052990675E-2,-8.366906084E-3
8.917520837E0,1.959599927E-2,-4.372490570E-2,-9.431906044E-3
8.922572035E0,1.427100040E-2,-4.052990675E-2,-1.156190597E-2
8.927623233E0,6.816000212E-3,-3.733490407E-2,-1.688690670E-2
8.932674431E0,-6.390000344E-4,-3.200990707E-2,-1.901690662E-2
8.937731775E0,-5.963999778E-3,-2.455490641E-2,-2.221190557E-2
8.942782973E0,-1.128899958E-2,-1.177490689E-2,-2.114690654E-2
8.947834171E0,-1.235399954E-2,5.265093409E-3,-1.901690662E-2
8.952885421E0,-1.235399954E-2,1.591509394E-2,-1.901690662E-2
8.957936618E0,-1.128899958E-2,1.378509402E-2,-1.688690670E-2
8.962987816E0,-9.158999659E-3,7.395093795E-3,-1.582190581E-2
8.968024848E0,-4.898999818E-3,-5.990627687E-5,-1.688690670E-2
8.973076098E0,3.621000098E-3,-7.514906116E-3,-1.795190573E-2
8.978127296E0,1.853100024E-2,-1.177490689E-2,-1.795190573E-2
8.983178493E0,2.598599903E-2,-1.283990685E-2,-1.688690670E-2
8.988229743E0,3.450600058E-2,-1.922990568E-2,-1.795190573E-2
8.993280941E0,4.089599848E-2,-2.561990544E-2,-2.327690646E-2
8.998386046E0,4.409100115E-2,-2.987990528E-2,-2.860190533E-2
9.003437243E0,4.728600010E-2,-2.774990536E-2,-3.179690987E-2
9.008488441E0,4.302600026E-2,-2.774990536E-2,-3.712190688E-2
9.013539639E0,3.237599880E-2,-2.561990544E-2,-4.138190299E-2
9.018590889E0,2.492100000E-2,-2.242490463E-2,-4.351190478E-2
9.023642087E0,1.533600036E-2,-1.816490479E-2,-3.925190866E-2
9.028669223E0,4.685999826E-3,-1.390490681E-2,-3.712190688E-2
9.033720421E0,-7.029000204E-3,-6.449906621E-3,-3.499190509E-2
9.038771618E0,-1.874400117E-2,1.005093683E-3,-3.179690987E-2
9.043822816E0,-2.619899996E-2,2.070093527E-3,-2.647190541E-2
9.048874066E0,-3.365400061E-2,3.135093488E-3,-2.221190557E-2
9.053925264E0,-4.004400223E-2,4.200093914E-3,-1.795190573E-2
9.058966827E0,-4.110899940E-2,2.070093527E-3,-1.582190581E-2
9.064018077E0,-3.791400045E-2,1.005093683E-3,-1.582190581E-2
9.069069327E0,-3.045899980E-2,-5.990627687E-5,-1.475690585E-2
9.074120577E0,-2.513400093E-2,-5.990627687E-5,-1.688690670E-2
9.079171879E0,-2.193900011E-2,-1.070990600E-2,-2.008190565E-2
9.084223129E0,-1.554899942E-2,-2.348990552E-2,-2.114690654E-2
9.089266879E0,-1.128899958E-2,-3.626990691E-2,-2.008190565E-2
9.094318129E0,-9.158999659E-3,-4.798490554E-2,-1.475690585E-2
9.099369379E0,-1.704000053E-3,-5.224490538E-2,-1.369190589E-2
9.104420629E0,2.555999905E-3,-5.756990612E-2,-1.049690600E-2
9.109471879E0,4.685999826E-3,-5.969990417E-2,-4.106906243E-3
9.114523181E0,3.621000098E-3,-5.756990612E-2,-9.119062452E-4
9.119565889E0,-1.704000053E-3,-5.011490732E-2,3.348093713E-3
9.124617139E0,-1.022399962E-2,-3.946490586E-2,6.543093827E-3
9.129668389E0,-1.767900027E-2,-2.348990552E-2,1.293309405E-2
9.134719639E0,-2.513400093E-2,-8.579906076E-3,2.145309374E-2
9.139770889E0,-3.045899980E-2,5.265093409E-3,2.890809439E-2
9.144822191E0,-3.791400045E-2,1.698009484E-2,3.316809237E-2
9.149880941E0,-4.217400029E-2,2.656509541E-2,3.636309505E-2
9.154932191E0,-4.749900103E-2,2.976009436E-2,3.742809594E-2
9.159983441E0,-5.069399998E-2,3.402009606E-2,3.423309326E-2
9.165034691E0,-5.282400176E-2,3.615009412E-2,3.316809237E-2
9.170085941E0,-5.069399998E-2,3.295509517E-2,3.316809237E-2
9.175137243E0,-5.069399998E-2,2.337009460E-2,3.316809237E-2
9.180199900E0,-4.643400013E-2,1.059009321E-2,3.103809431E-2
9.185251150E0,-3.684899956E-2,-9.644906037E-3,3.316809237E-2
9.190302400E0,-2.193900011E-2,-2.561990544E-2,3.742809594E-2
9.195353650E0,-3.834000090E-3,-3.626990691E-2,4.275309294E-2
9.200404900E0,1.533600036E-2,-4.798490554E-2,4.488309473E-2
9.205456150E0,3.450600058E-2,-5.756990612E-2,4.488309473E-2
9.210485577E0,5.154599994E-2,-6.289491057E-2,4.275309294E-2
9.215536827E0,6.965100020E-2,-5.117990449E-2,3.849309683E-2
9.220588077E0,8.030100167E-2,-3.733490407E-2,3.529809415E-2
9.225639379E0,8.456099778E-2,-2.561990544E-2,2.890809439E-2
9.230690577E0,8.136600256E-2,-1.816490479E-2,2.358309366E-2
9.235741827E0,7.178100199E-2,-1.283990685E-2,2.038809471E-2
9.240794535E0,6.113100052E-2,-9.644906037E-3,1.719309390E-2
9.245845785E0,4.622099921E-2,-5.384906661E-3,8.673094213E-3
9.250897035E0,2.705099992E-2,-5.384906661E-3,-1.976906089E-3
9.255948337E0,8.946000598E-3,1.005093683E-3,-1.262690593E-2
9.260999587E0,-4.898999818E-3,8.460094221E-3,-2.434190549E-2
9.266050837E0,-1.661400124E-2,1.165509317E-2,-4.031690955E-2
9.271099014E0,-2.513400093E-2,8.460094221E-3,-5.416190624E-2
9.276150264E0,-2.832899988E-2,4.200093914E-3,-6.694190949E-2
9.281201514E0,-2.193900011E-2,3.135093488E-3,-7.652691007E-2
9.286252764E0,-8.093999699E-3,2.070093527E-3,-7.972190529E-2
9.291304014E0,1.427100040E-2,3.135093488E-3,-7.865690440E-2
9.296355316E0,3.663599864E-2,5.265093409E-3,-7.546190917E-2
9.301421358E0,6.006599963E-2,2.070093527E-3,-7.120190561E-2
9.306472608E0,8.243099600E-2,1.005093683E-3,-6.694190949E-2
9.311523858E0,9.947100282E-2,-1.124906237E-3,-5.735690892E-2
9.316575160E0,1.101209968E-1,-5.990627687E-5,-4.670690745E-2
9.321626410E0,1.133159995E-1,7.395093795E-3,-4.031690955E-2
9.326677660E0,1.101209968E-1,1.485009398E-2,-3.392690420E-2
9.331713389E0,9.947100282E-2,2.017509378E-2,-3.073190711E-2
9.336764639E0,8.243099600E-2,2.337009460E-2,-2.966690622E-2
9.341815889E0,6.326100230E-2,2.550009452E-2,-3.286190331E-2
9.346867139E0,4.196099937E-2,2.976009436E-2,-3.179690987E-2
9.351918389E0,1.959599927E-2,3.295509517E-2,-3.073190711E-2
9.356969639E0,4.685999826E-3,3.295509517E-2,-3.499190509E-2
9.362027816E0,-1.128899958E-2,2.976009436E-2,-3.712190688E-2
9.367079118E0,-2.513400093E-2,2.337009460E-2,-4.244690388E-2
9.372130368E0,-2.832899988E-2,1.485009398E-2,-4.670690745E-2
9.377181618E0,-2.726400085E-2,6.330093369E-3,-4.564190656E-2
9.382232868E0,-1.767900027E-2,-5.990627687E-5,-4.457690567E-2
9.387284118E0,-3.834000090E-3,-4.319906235E-3,-4.244690388E-2
9.392324014E0,1.427100040E-2,-7.514906116E-3,-4.138190299E-2
9.397375316E0,3.131099790E-2,-1.070990600E-2,-4.244690388E-2
9.402426566E0,5.048099905E-2,-1.922990568E-2,-4.244690388E-2
9.407477816E0,6.539099663E-2,-2.774990536E-2,-4.138190299E-2
9.412529066E0,7.391099632E-2,-2.881490625E-2,-4.031690955E-2
9.417580316E0,7.817099988E-2,-3.413990512E-2,-3.712190688E-2
9.422639587E0,7.604099810E-2,-3.733490407E-2,-3.179690987E-2
9.427690889E0,6.326100230E-2,-3.946490586E-2,-2.753690630E-2
9.432742139E0,4.196099937E-2,-3.733490407E-2,-2.753690630E-2
9.437793389E0,1.533600036E-2,-2.881490625E-2,-2.434190549E-2
9.442844587E0,-1.448399946E-2,-1.709990576E-2,-2.221190557E-2
9.447895837E0,-4.323900118E-2,-7.514906116E-3,-1.688690670E-2
9.452937868E0,-6.773400307E-2,3.135093488E-3,-1.688690670E-2
9.457989171E0,-8.903399855E-2,1.165509317E-2,-1.901690662E-2
9.463040421E0,-1.028790027E-1,1.591509394E-2,-1.795190573E-2
9.468091671E0,-1.092690006E-1,1.485009398E-2,-1.901690662E-2
9.473142921E0,-1.071389988E-1,1.378509402E-2,-1.901690662E-2
9.478194171E0,-9.542400390E-2,6.330093369E-3,-1.901690662E-2
9.483257191E0,-7.838399708E-2,-4.319906235E-3,-1.475690585E-2
9.488308493E0,-5.601900071E-2,-1.390490681E-2,-8.366906084E-3
9.493359743E0,-3.152399883E-2,-2.348990552E-2,-4.106906243E-3
9.498410993E0,-5.963999778E-3,-3.307490423E-2,1.218093792E-3
9.503462243E0,1.746599935E-2,-4.052990675E-2,2.283093752E-3
9.508513493E0,3.344099969E-2,-4.265990481E-2,8.673094213E-3
9.513554743E0,4.515599832E-2,-4.052990675E-2,1.186809409E-2
9.518606046E0,5.154599994E-2,-2.987990528E-2,1.612809300E-2
9.523657296E0,5.154599994E-2,-1.496990677E-2,2.464809455E-2
9.528708598E0,4.728600010E-2,6.330093369E-3,2.997309342E-2
9.533759796E0,3.663599864E-2,1.911009476E-2,3.955809027E-2
9.538811046E0,2.598599903E-2,2.976009436E-2,4.488309473E-2
9.543863025E0,1.320600044E-2,3.828009591E-2,4.701309651E-2
9.548914275E0,2.555999905E-3,4.999509454E-2,4.914309084E-2
9.553965577E0,-8.093999699E-3,6.171009317E-2,4.807809740E-2
9.559016827E0,-1.554899942E-2,7.129509002E-2,5.020809174E-2
9.564068077E0,-1.661400124E-2,8.194509149E-2,5.020809174E-2
9.569119327E0,-1.554899942E-2,8.301009238E-2,5.020809174E-2
9.574181046E0,-1.448399946E-2,7.342509180E-2,4.807809740E-2
9.579232348E0,-1.022399962E-2,5.851509422E-2,4.381809384E-2
9.584283598E0,2.555999905E-3,4.254009575E-2,4.275309294E-2
9.589334848E0,1.427100040E-2,3.295509517E-2,3.636309505E-2
9.594386098E0,2.598599903E-2,2.656509541E-2,2.997309342E-2
9.599437348E0,3.983100131E-2,1.698009484E-2,2.464809455E-2
9.604485993E0,4.835100099E-2,1.059009321E-2,1.399809401E-2
9.609537296E0,5.261100084E-2,8.460094221E-3,1.218093792E-3
9.614588493E0,5.367599800E-2,-5.990627687E-5,-8.366906084E-3
9.619639796E0,5.367599800E-2,-4.319906235E-3,-1.475690585E-2
9.624691046E0,5.048099905E-2,-7.514906116E-3,-2.008190565E-2
9.629742296E0,4.622099921E-2,-1.283990685E-2,-2.221190557E-2
9.634784743E0,3.983100131E-2,-1.496990677E-2,-2.327690646E-2
9.639835993E0,3.344099969E-2,-1.816490479E-2,-2.540690638E-2
9.644887243E0,2.385599911E-2,-1.816490479E-2,-3.179690987E-2
9.649938546E0,1.427100040E-2,-2.455490641E-2,-3.392690420E-2
9.654989796E0,-1.704000053E-3,-2.774990536E-2,-3.286190331E-2
9.660041046E0,-1.448399946E-2,-2.242490463E-2,-3.179690987E-2
9.665100368E0,-2.406900004E-2,-1.390490681E-2,-3.073190711E-2
9.670151671E0,-3.258899972E-2,-4.319906235E-3,-2.860190533E-2
9.675202921E0,-4.110899940E-2,1.005093683E-3,-2.966690622E-2
9.680254171E0,-4.749900103E-2,5.265093409E-3,-3.286190331E-2
9.685305421E0,-5.175900087E-2,6.330093369E-3,-3.925190866E-2
9.690356723E0,-4.962899908E-2,8.460094221E-3,-4.244690388E-2
9.695405733E0,-4.430400208E-2,1.272009313E-2,-4.031690955E-2
9.700456983E0,-3.897900134E-2,1.591509394E-2,-3.712190688E-2
9.705508233E0,-3.365400061E-2,1.059009321E-2,-3.712190688E-2
9.710559483E0,-2.832899988E-2,4.200093914E-3,-3.286190331E-2
9.715610733E0,-1.980900019E-2,-2.189906314E-3,-2.860190533E-2
9.720661983E0,-8.093999699E-3,-3.254906274E-3,-2.434190549E-2
9.725698702E0,1.490999945E-3,-2.189906314E-3,-1.475690585E-2
9.730749952E0,1.001100056E-2,-3.254906274E-3,-9.431906044E-3
9.735801202E0,1.640100032E-2,-8.579906076E-3,-1.976906089E-3
9.740852504E0,2.066100016E-2,-8.579906076E-3,6.543093827E-3
9.745903754E0,2.172599919E-2,-8.579906076E-3,1.399809401E-2
9.750955004E0,1.959599927E-2,-7.514906116E-3,2.038809471E-2
9.756019639E0,1.746599935E-2,-1.124906237E-3,2.677809447E-2
9.761070889E0,1.320600044E-2,4.200093914E-3,2.997309342E-2
9.766122139E0,1.001100056E-2,6.330093369E-3,2.997309342E-2
9.771173389E0,6.816000212E-3,1.059009321E-2,3.210309148E-2
9.776224691E0,3.621000098E-3,1.485009398E-2,3.210309148E-2
9.781275941E0,4.259999841E-4,1.804509386E-2,2.890809439E-2
9.786316931E0,-2.768999897E-3,2.230509371E-2,2.677809447E-2
9.791368181E0,-8.093999699E-3,2.017509378E-2,2.145309374E-2
9.796419431E0,-8.093999699E-3,1.059009321E-2,1.932309382E-2
9.801470733E0,-1.341899950E-2,2.070093527E-3,1.825809292E-2
9.806521983E0,-1.980900019E-2,-7.514906116E-3,1.719309390E-2
9.811573233E0,-2.300400101E-2,-1.709990576E-2,1.612809300E-2
9.816630108E0,-2.193900011E-2,-1.922990568E-2,1.399809401E-2
9.821681358E0,-2.193900011E-2,-2.029490471E-2,1.293309405E-2
9.826732608E0,-1.661400124E-2,-1.283990685E-2,1.399809401E-2
9.831783858E0,-7.029000204E-3,-3.254906274E-3,1.506309398E-2
9.836835108E0,2.555999905E-3,7.395093795E-3,1.719309390E-2
9.841886410E0,7.881000638E-3,2.124009468E-2,1.719309390E-2
9.846932139E0,1.533600036E-2,3.082509525E-2,1.612809300E-2
9.851983389E0,2.279100008E-2,3.934509307E-2,1.932309382E-2
9.857034639E0,2.705099992E-2,4.893009365E-2,1.719309390E-2
9.862085889E0,2.918099985E-2,5.319009349E-2,1.719309390E-2
9.867137139E0,2.705099992E-2,4.999509454E-2,1.825809292E-2
9.872188389E0,2.172599919E-2,4.254009575E-2,1.719309390E-2
9.877238025E0,1.853100024E-2,3.721509501E-2,1.719309390E-2
9.882289275E0,1.320600044E-2,3.402009606E-2,1.612809300E-2
9.887340525E0,5.750999786E-3,2.443509363E-2,1.399809401E-2
9.892391775E0,4.259999841E-4,1.485009398E-2,1.293309405E-2
9.897443025E0,4.259999841E-4,1.165509317E-2,9.738094173E-3
9.902494275E0,1.490999945E-3,1.059009321E-2,8.673094213E-3
9.907542973E0,3.621000098E-3,1.378509402E-2,4.413093906E-3
9.912594223E0,1.001100056E-2,1.378509402E-2,-4.106906243E-3
9.917645473E0,1.746599935E-2,1.591509394E-2,-9.431906044E-3
9.922696775E0,2.279100008E-2,2.124009468E-2,-1.475690585E-2
9.927748025E0,2.598599903E-2,2.869509533E-2,-1.795190573E-2
9.932799275E0,2.705099992E-2,2.976009436E-2,-2.221190557E-2
9.937854327E0,2.598599903E-2,3.402009606E-2,-2.327690646E-2
9.942905577E0,2.385599911E-2,4.041009396E-2,-2.434190549E-2
9.947956827E0,1.853100024E-2,4.254009575E-2,-1.795190573E-2
9.953008129E0,1.107600052E-2,4.467009380E-2,-1.262690593E-2
9.958059379E0,3.621000098E-3,4.360509291E-2,-7.301906124E-3
9.963110629E0,-4.898999818E-3,3.828009591E-2,-4.106906243E-3
9.968209691E0,-1.235399954E-2,3.295509517E-2,2.283093752E-3
9.973260941E0,-1.767900027E-2,2.656509541E-2,3.348093713E-3
9.978312243E0,-1.980900019E-2,2.443509363E-2,4.413093906E-3
9.983363493E0,-2.087400109E-2,2.656509541E-2,3.348093713E-3
9.988414743E0,-1.661400124E-2,2.976009436E-2,1.218093792E-3
9.993465941E0,-1.022399962E-2,3.295509517E-2,-9.119062452E-4
9.998477504E0,-4.898999818E-3,3.402009606E-2,-3.041906282E-3
1.000352875E1,3.621000098E-3,3.508509323E-2,-8.366906084E-3
1.000858000E1,1.214100048E-2,3.295509517E-2,-1.369190589E-2
1.001363125E1,1.107600052E-2,2.763009444E-2,-1.795190573E-2
1.001868250E1,8.946000598E-3,2.017509378E-2,-2.221190557E-2
1.002373381E1,1.490999945E-3,1.591509394E-2,-2.647190541E-2
1.002877886E1,-1.022399962E-2,4.200093914E-3,-3.392690420E-2
1.003383011E1,-2.300400101E-2,-7.514906116E-3,-3.286190331E-2
1.003888136E1,-3.791400045E-2,-2.561990544E-2,-2.966690622E-2
1.004393261E1,-5.069399998E-2,-3.413990512E-2,-3.073190711E-2
1.004898386E1,-5.708400160E-2,-3.946490586E-2,-2.647190541E-2
1.005403516E1,-6.027900055E-2,-4.052990675E-2,-1.795190573E-2
1.005908193E1,-5.495399982E-2,-3.626990691E-2,-1.369190589E-2
1.006413308E1,-4.962899908E-2,-2.774990536E-2,-9.431906044E-3
1.006918417E1,-4.004400223E-2,-1.816490479E-2,-7.301906124E-3
1.007423532E1,-3.045899980E-2,-1.070990600E-2,-5.171906203E-3
1.007928646E1,-2.193900011E-2,-5.384906661E-3,-5.171906203E-3
1.008433756E1,-1.341899950E-2,2.070093527E-3,-4.106906243E-3
