"Time (s)","Acceleration x (m/s^2)","Acceleration y (m/s^2)","Acceleration z (m/s^2)"
3.841464100E-2,-4.774905145E-1,2.375737429E0,1.000400639E1
4.341578600E-2,-5.373780131E-1,2.375737429E0,1.020522881E1
4.844193200E-2,-5.565419793E-1,2.335014105E0,1.022199726E1
5.344307800E-2,-6.619439721E-1,2.289499521E0,1.012617683E1
5.853266100E-2,-7.553684711E-1,2.258358002E0,9.977656364E0
6.358646400E-2,-8.583750129E-1,2.222425461E0,9.857880592E0
6.860151600E-2,-9.709634781E-1,2.234402895E0,9.706964493E0
7.365531800E-2,-1.004500508E0,2.246380568E0,9.685404778E0
7.875193200E-2,-1.014082551E0,2.313454390E0,9.663845062E0
8.376214100E-2,-9.901275039E-1,2.313454390E0,9.599166870E0
8.883698400E-2,-9.853364825E-1,2.315850019E0,9.505742073E0
9.386771400E-2,-8.823300004E-1,2.339804888E0,9.421899796E0
9.892797400E-2,-7.817190289E-1,2.368551016E0,9.362012863E0
1.039582860E-1,-6.906899810E-1,2.433229446E0,9.275774956E0
1.090244320E-1,-6.212205291E-1,2.471557617E0,9.175163269E0
1.140631300E-1,-5.206094980E-1,2.473953009E0,9.052992821E0
1.191437550E-1,-4.726994932E-1,2.466766596E0,8.945195198E0
1.241703700E-1,-4.415580034E-1,2.473953009E0,8.985918999E0
1.292498490E-1,-4.966545105E-1,2.418856382E0,9.081739426E0
1.342744320E-1,-4.726994932E-1,2.397296906E0,9.206304550E0
1.393147450E-1,-5.014454722E-1,2.375737429E0,9.369198799E0
1.443631820E-1,-5.373780131E-1,2.349386930E0,9.457832336E0
1.494113590E-1,-5.685194731E-1,2.315850019E0,9.580002785E0
1.544841200E-1,-5.852879882E-1,2.243984938E0,9.651867867E0
1.595306820E-1,-6.164295077E-1,2.198470592E0,9.647076607E0
1.645766720E-1,-6.331980228E-1,2.162538052E0,9.680614471E0
1.696439110E-1,-6.978765130E-1,2.133791924E0,9.683009148E0
1.746933910E-1,-6.811079979E-1,2.162538052E0,9.666240692E0
1.797412550E-1,-6.475710273E-1,2.186492920E0,9.642286301E0
1.847791200E-1,-5.828924775E-1,2.217634439E0,9.591980934E0
1.898015160E-1,-5.589374900E-1,2.196074963E0,9.534488678E0
1.948962550E-1,-5.397735238E-1,2.188888550E0,9.438668251E0
1.999162030E-1,-5.661240220E-1,2.220030069E0,9.342848778E0
2.049847970E-1,-5.757060051E-1,2.181701899E0,9.211095810E0
2.100519840E-1,-5.637285113E-1,2.212843418E0,9.151208878E0
2.150885470E-1,-4.870724976E-1,2.246380568E0,9.110485077E0
2.201393800E-1,-3.984389901E-1,2.255962610E0,9.084134102E0
2.251641200E-1,-3.241784871E-1,2.253566980E0,9.050597191E0
2.302089640E-1,-2.523134947E-1,2.253566980E0,9.074552536E0
2.352733390E-1,-2.499179989E-1,2.260753393E0,9.134440422E0
2.403650570E-1,-2.786639929E-1,2.255962610E0,9.189536095E0
2.454185990E-1,-3.337605000E-1,2.203261614E0,9.299729347E0
2.504653700E-1,-3.169920146E-1,2.205657005E0,9.522510529E0
2.555204740E-1,-2.714774907E-1,2.200865984E0,9.845903397E0
2.605661510E-1,-2.307540029E-1,2.162538052E0,1.009743118E1
2.656256820E-1,-1.852394938E-1,2.107441425E0,1.030344391E1
2.706757340E-1,-1.612845063E-1,2.014017105E0,1.047591972E1
2.757207860E-1,-2.451270074E-1,1.944547534E0,1.048550224E1
2.807648490E-1,-3.145965040E-1,1.836750031E0,1.051664352E1
2.858223490E-1,-3.217830062E-1,1.776862502E0,1.048071098E1
2.908719320E-1,-3.864614964E-1,1.736139059E0,1.044238281E1
2.959241720E-1,-4.942589998E-1,1.740929961E0,1.033458519E1
3.009792760E-1,-5.565419793E-1,1.743325472E0,1.024116135E1
3.060352140E-1,-5.589374900E-1,1.772071481E0,1.003993893E1
3.110719840E-1,-6.044520140E-1,1.829563498E0,9.982446671E0
3.161210470E-1,-6.308025122E-1,1.908614993E0,9.917768478E0
3.211817760E-1,-6.188250184E-1,2.011621475E0,9.848299026E0
3.262367760E-1,-5.469599962E-1,2.121814489E0,9.754874229E0
3.312831300E-1,-4.798859954E-1,2.191283941E0,9.639890671E0
3.363555260E-1,-4.128119946E-1,2.239193916E0,9.500951767E0
3.413886510E-1,-3.625065088E-1,2.263149023E0,9.364407539E0
3.464086510E-1,-3.145965040E-1,2.277522087E0,9.359617233E0
3.514540160E-1,-3.313649893E-1,2.251171589E0,9.335661888E0
3.565053180E-1,-3.888570070E-1,2.260753393E0,9.249423981E0
3.615578700E-1,-4.463489950E-1,2.234402895E0,9.213491440E0
3.666266720E-1,-5.613330007E-1,2.155351400E0,9.146417618E0
3.716729740E-1,-8.176515102E-1,2.037971973E0,9.096112251E0
3.767100570E-1,-8.823300004E-1,1.968502522E0,9.105693817E0
3.817733390E-1,-7.242270112E-1,1.925383449E0,8.995500565E0
3.868273490E-1,-6.260114908E-1,1.884660006E0,9.045806885E0
3.918439640E-1,-6.068475246E-1,1.860705018E0,9.158394814E0
3.969291720E-1,-5.014454722E-1,1.872682452E0,9.225468636E0
4.019757860E-1,-4.439535141E-1,1.860705018E0,9.311706543E0
4.070492760E-1,-4.080210030E-1,1.827167988E0,9.362012863E0
4.121025570E-1,-4.415580034E-1,1.834354520E0,9.441063881E0
4.171449010E-1,-3.241784871E-1,1.879868984E0,9.491369247E0
4.221901610E-1,-2.762685120E-1,1.930174470E0,9.486578941E0
4.272302140E-1,-2.571044862E-1,1.970898032E0,9.481787682E0
4.322899010E-1,-2.762685120E-1,1.963711500E0,9.500951767E0
4.373579740E-1,-2.523134947E-1,1.911010504E0,9.618330956E0
4.423896930E-1,-2.379405051E-1,1.872682452E0,9.668636322E0
4.474397450E-1,-2.044035047E-1,1.836750031E0,9.747688293E0
4.524956300E-1,-2.810595036E-1,1.788840055E0,9.809970856E0
4.575521410E-1,-1.493069977E-1,1.760094047E0,1.003514767E1
4.625888070E-1,1.119150035E-2,1.779258013E0,1.021960163E1
4.676448490E-1,-1.205610037E-1,1.748116493E0,1.019085503E1
4.727052140E-1,-4.367670119E-1,1.630736947E0,1.019564629E1
4.777529220E-1,-5.757060051E-1,1.534916997E0,1.015492344E1
4.828001610E-1,-6.739215255E-1,1.494193554E0,1.005191612E1
4.878553700E-1,-7.457864881E-1,1.431910515E0,9.879440308E0
4.929065160E-1,-7.505775094E-1,1.422328472E0,9.706964493E0
4.979554220E-1,-7.505775094E-1,1.395977974E0,9.508137703E0
5.030073490E-1,-7.913010120E-1,1.352859020E0,9.335661888E0
5.080416200E-1,-8.320245147E-1,1.338485956E0,9.297333717E0
5.131079740E-1,-8.056740165E-1,1.340881467E0,9.352430344E0
5.182258910E-1,-6.978765130E-1,1.400768995E0,9.443459511E0
5.231809430E-1,-4.942589998E-1,1.451074481E0,9.613539696E0
5.282302140E-1,-2.594999969E-1,1.482216001E0,9.778829575E0
5.332720360E-1,-5.109149963E-2,1.479820490E0,9.970469475E0
5.383319320E-1,7.586999983E-2,1.393582463E0,1.017648220E1
5.433975050E-1,1.357575059E-1,1.297762513E0,1.032979488E1
5.484461510E-1,7.107900083E-2,1.237874985E0,1.041363716E1
5.534917760E-1,-4.869600013E-2,1.192360520E0,1.047831535E1
5.585410470E-1,-2.187764943E-1,1.134868503E0,1.054778481E1
5.636146930E-1,-3.217830062E-1,1.048630476E0,1.057413578E1
5.686528700E-1,-4.367670119E-1,1.007907033E0,1.048071098E1
5.736968800E-1,-6.427800059E-1,1.019884467E0,1.030344391E1
5.787407860E-1,-7.362045050E-1,1.060608029E0,1.024116135E1
5.837964640E-1,-7.386000156E-1,1.115704536E0,1.015013218E1
5.888243800E-1,-6.930854917E-1,1.180382967E0,1.004233456E1
5.939134950E-1,-6.619439721E-1,1.213919997E0,9.999215126E0
5.989585990E-1,-5.445644855E-1,1.197151542E0,9.968073845E0
6.040225570E-1,-5.206094980E-1,1.252248049E0,9.960887909E0
6.090622450E-1,-4.822815061E-1,1.264225483E0,9.903395653E0
6.141107340E-1,-4.870724976E-1,1.237874985E0,9.874649048E0
6.191631820E-1,-5.134230256E-1,1.266620994E0,9.855485916E0
6.241720890E-1,-5.589374900E-1,1.266620994E0,9.802784920E0
6.292366200E-1,-5.421689749E-1,1.285784960E0,9.793202400E0
6.342839110E-1,-5.182139874E-1,1.283389449E0,9.790806770E0
6.393392240E-1,-4.750950038E-1,1.324113011E0,9.663845062E0
6.443700050E-1,-3.840659857E-1,1.343276978E0,9.596771240E0
6.494271410E-1,-3.816705048E-1,1.355254531E0,9.512928963E0
6.544771930E-1,-3.768795133E-1,1.352859020E0,9.453041077E0
6.595635990E-1,-3.361560106E-1,1.319321990E0,9.445855141E0
6.646106300E-1,-4.247894883E-1,1.304949045E0,9.433877945E0
6.696328180E-1,-5.613330007E-1,1.278598547E0,9.467414856E0
6.746772970E-1,-6.547574997E-1,1.245061517E0,9.565629959E0
6.797608910E-1,-7.002720237E-1,1.194756031E0,9.706964493E0
6.847883910E-1,-6.763169765E-1,1.182778478E0,9.805179596E0
6.898331300E-1,-6.140339971E-1,1.197151542E0,9.867463112E0
6.948917240E-1,-5.134230256E-1,1.163614511E0,9.939328194E0
6.999417240E-1,-3.625065088E-1,1.125286460E0,9.994424820E0
7.050166720E-1,-2.618955076E-1,1.091749549E0,1.002796173E1
7.100311510E-1,-2.067990005E-1,1.063003540E0,9.977656364E0
7.151107340E-1,-1.373295039E-1,1.086958528E0,9.936932564E0
7.201675570E-1,-1.109789982E-1,1.146846056E0,9.901000023E0
7.251951610E-1,-1.085835025E-1,1.158823490E0,9.814762115E0
7.302663590E-1,-8.941949904E-2,1.132472992E0,9.659054756E0
7.353179740E-1,-1.349339932E-1,1.127681971E0,9.587189674E0
7.403602660E-1,-2.044035047E-1,1.122890949E0,9.460227966E0
7.454254740E-1,-2.307540029E-1,1.074980974E0,9.407526970E0
7.504684430E-1,-2.810595036E-1,1.031862020E0,9.364407539E0
7.555206300E-1,-3.002234995E-1,1.041443944E0,9.338057518E0
7.605679740E-1,-2.714774907E-1,1.091749549E0,9.342848778E0
7.656029220E-1,-2.762685120E-1,1.166010022E0,9.421899796E0
7.706791200E-1,-3.217830062E-1,1.206733465E0,9.527301788E0
7.757230260E-1,-3.145965040E-1,1.233083963E0,9.668636322E0
7.807714640E-1,-1.996124983E-1,1.240270495E0,9.829134941E0
7.858220360E-1,-9.181500226E-2,1.254643559E0,9.996820450E0
7.908483910E-1,-1.036799978E-2,1.175591946E0,1.018127346E1
7.959273490E-1,-3.181499895E-3,9.983249903E-1,1.029625797E1
8.009775050E-1,1.609500032E-3,7.875210047E-1,1.038489056E1
8.060236510E-1,7.347449660E-2,6.964920163E-1,1.041842842E1
8.110765160E-1,1.261754930E-1,6.078584790E-1,1.044477844E1
8.161307340E-1,1.525260061E-1,5.335980058E-1,1.044956970E1
8.211764640E-1,2.004359961E-1,5.216205120E-1,1.043519688E1
8.261956820E-1,2.459505051E-1,5.216205120E-1,1.039447308E1
8.312765680E-1,3.082334995E-1,5.886945128E-1,1.039686871E1
8.363130780E-1,3.010469973E-1,7.012829781E-1,1.038010025E1
8.413484950E-1,2.315775007E-1,8.977140188E-1,1.037291336E1
8.464360990E-1,1.812720001E-1,1.027070999E0,1.037530899E1
8.514822450E-1,1.573169976E-1,1.103726983E0,1.029865265E1
8.565342240E-1,1.932494938E-1,1.130077481E0,1.021241474E1
8.615534950E-1,1.836674958E-1,1.127681971E0,1.010701275E1
8.666408390E-1,1.381530017E-1,1.089354038E0,1.001358891E1
8.716635990E-1,2.556449920E-2,1.082167506E0,9.968073845E0
8.767867240E-1,-7.744199783E-2,1.022279978E0,9.924955368E0
8.818076090E-1,-1.253519952E-1,9.839519858E-1,9.819553375E0
8.868256300E-1,-2.403360009E-1,8.809455037E-1,9.795598030E0
8.918927140E-1,-3.265739977E-1,8.066849709E-1,9.826739311E0
8.969290680E-1,-3.433425128E-1,7.659615278E-1,9.857880592E0
9.019758390E-1,-3.026190102E-1,7.348200083E-1,9.862671852E0
9.070386510E-1,-2.954325080E-1,6.797235012E-1,9.848299026E0
9.120754220E-1,-2.307540029E-1,6.006720066E-1,9.848299026E0
9.171321930E-1,-2.858504951E-1,4.737105072E-1,9.951305389E0
9.221806820E-1,-3.888570070E-1,4.162184894E-1,1.009263992E1
9.272266720E-1,-3.816705048E-1,4.162184894E-1,1.013096809E1
9.322684430E-1,-2.978279889E-1,5.024564862E-1,1.016929626E1
9.373603180E-1,-2.810595036E-1,5.839034915E-1,1.013096809E1
9.423731300E-1,-1.428503990E0,9.623925090E-1,9.819553375E0
9.474315160E-1,-2.250160456E0,1.173196554E0,9.211095810E0
9.524964110E-1,-1.488391519E0,1.115704536E0,8.899681091E0
9.575372970E-1,-4.846769869E-1,1.187569499E0,8.492445946E0
9.625879220E-1,3.777030110E-1,1.312135458E0,8.329551697E0
9.676364110E-1,9.909510016E-1,1.585222483E0,8.475677490E0
9.726990160E-1,1.177800059E0,1.836750031E0,8.703249931E0
9.777483910E-1,1.196964025E0,2.025994539E0,8.966754913E0
9.827908910E-1,1.146658540E0,1.961315989E0,9.184745789E0
9.878413590E-1,1.120308042E0,1.645110011E0,9.232655525E0
9.929008910E-1,1.074793458E0,1.285784960E0,9.165581703E0
9.979406820E-1,9.909510016E-1,9.360420108E-1,9.086529732E0
1.003006151E0,8.999220133E-1,6.342089772E-1,8.957173347E0
1.008041724E0,8.735715151E-1,3.802860081E-1,8.873330116E0
1.013088859E0,9.047129750E-1,2.820704877E-1,8.851771355E0
1.018143807E0,9.502274990E-1,2.413470000E-1,8.947590828E0
1.023204641E0,1.002928495E0,2.988390028E-1,9.024247169E0
1.028271203E0,1.043652058E0,3.539355099E-1,9.191931725E0
1.033326464E0,1.072397947E0,4.473600090E-1,9.400340080E0
1.038373234E0,1.115517020E0,5.383890271E-1,9.618330956E0
1.043430474E0,1.096353054E0,6.653504968E-1,9.853090286E0
1.048471672E0,9.669960141E-1,7.515885234E-1,1.009743118E1
1.053499380E0,8.448255062E-1,8.066849709E-1,1.034895897E1
1.058553234E0,6.939089894E-1,7.180514932E-1,1.057653141E1
1.063601516E0,5.094555020E-1,5.862990022E-1,1.074900723E1
1.068656724E0,3.202109933E-1,4.305914938E-1,1.085440922E1
1.073708130E0,2.243909985E-1,2.293695062E-1,1.086159515E1
1.078759484E0,2.387640029E-1,1.143855006E-1,1.084482670E1
1.083810839E0,3.321884871E-1,5.210249871E-2,1.077056694E1
1.088862245E0,4.256129861E-1,-2.694899961E-2,1.068911934E1
1.093913651E0,4.591499865E-1,2.814750001E-2,1.066755962E1
1.098958651E0,5.238285065E-1,9.761700034E-2,1.072265625E1
1.104010057E0,5.693429708E-1,1.551090032E-1,1.074900723E1
1.109061411E0,5.477834940E-1,2.197874933E-1,1.081847668E1
1.114112818E0,3.968670070E-1,2.820704877E-1,1.079212570E1
1.119164172E0,2.770920098E-1,2.820704877E-1,1.078733540E1
1.124215578E0,1.357575059E-1,2.748839855E-1,1.070109653E1
1.129264693E0,7.586999983E-2,3.132120073E-1,1.054299355E1
1.134316047E0,3.754200041E-2,4.138230085E-1,1.035374928E1
1.139367453E0,-5.576999858E-3,5.192250013E-1,1.026511574E1
1.144418807E0,-7.025550306E-2,6.198359728E-1,1.013336372E1
1.149470214E0,-1.133745015E-1,5.934854746E-1,9.944119453E0
1.154521620E0,-1.517024934E-1,4.689194858E-1,9.711755753E0
1.159587141E0,-2.355449945E-1,4.018455148E-1,9.546465874E0
1.164638547E0,-3.050144911E-1,3.683085144E-1,9.397945404E0
1.169689953E0,-3.026190102E-1,3.683085144E-1,9.369198799E0
1.174741307E0,-3.050144911E-1,4.593375027E-1,9.390758514E0
1.179792661E0,-1.373295039E-1,5.072475076E-1,9.400340080E0
1.184844068E0,-3.671849892E-2,5.743215084E-1,9.457832336E0
1.189896411E0,-3.181499895E-3,6.533730030E-1,9.529697418E0
1.194947818E0,2.316899970E-2,7.276334763E-1,9.577607155E0
1.199999224E0,9.742949903E-2,7.300289869E-1,9.580002785E0
1.205050578E0,9.742949903E-2,7.204470038E-1,9.599166870E0
1.210101932E0,9.742949903E-2,7.300289869E-1,9.601562500E0
1.215153339E0,1.357575059E-1,8.474084735E-1,9.570421219E0
1.220208182E0,2.483460009E-1,9.216690063E-1,9.532093048E0
1.225259589E0,2.531369925E-1,1.007907033E0,9.484183311E0
1.230310995E0,2.028315067E-1,1.103726983E0,9.500951767E0
1.235362349E0,1.884585023E-1,1.134868503E0,9.534488678E0
1.240413755E0,1.980405003E-1,1.103726983E0,9.548861504E0
1.245465161E0,1.716900021E-1,1.046234965E0,9.527301788E0
1.250457141E0,1.309664994E-1,9.863474965E-1,9.544070244E0
1.255508547E0,1.189889982E-1,8.905274868E-1,9.556048393E0
1.260559901E0,7.826550305E-2,8.162670135E-1,9.524906158E0
1.265611307E0,-1.276350021E-2,7.467975020E-1,9.580002785E0
1.270662714E0,-1.229564995E-1,7.300289869E-1,9.651867867E0
1.275714068E0,-1.373295039E-1,7.372155190E-1,9.711755753E0
1.280754172E0,-2.020079941E-1,7.659615278E-1,9.726128578E0
1.285805578E0,-2.451270074E-1,7.611705065E-1,9.795598030E0
1.290856932E0,-2.523134947E-1,7.563794851E-1,9.836321831E0
1.295908339E0,-2.475225031E-1,7.587749958E-1,9.951305389E0
1.300959745E0,-1.972170025E-1,7.851254940E-1,1.005910301E1
1.306011099E0,-1.515899971E-2,8.258489966E-1,1.018606472E1
1.311099797E0,2.411594987E-1,8.378264904E-1,1.023157883E1
1.316151151E0,4.759185016E-1,8.282445073E-1,1.021960163E1
1.321202505E0,6.052755117E-1,8.977140188E-1,1.008545303E1
1.326253911E0,7.178639770E-1,8.881319761E-1,9.994424820E0
1.331305266E0,7.681695223E-1,8.450130224E-1,9.843507767E0
1.336356672E0,7.537965178E-1,8.450130224E-1,9.718941689E0
1.341402818E0,7.250505090E-1,8.833410144E-1,9.683009148E0
1.346454224E0,6.412079930E-1,8.833410144E-1,9.620726585E0
1.351505578E0,5.286195278E-1,8.929229975E-1,9.522510529E0
1.356556984E0,4.280084968E-1,8.905274868E-1,9.445855141E0
1.361608339E0,3.537479937E-1,8.761544824E-1,9.417108536E0
1.366659745E0,2.842785120E-1,9.025049806E-1,9.354825974E0
1.371699641E0,2.219955027E-1,8.258489966E-1,9.333266258E0
1.376751047E0,1.740854979E-1,7.587749958E-1,9.316497803E0
1.381802401E0,1.118025035E-1,6.917009950E-1,9.326080322E0
1.386853807E0,1.094070002E-1,6.485819817E-1,9.429086685E0
1.391905161E0,1.070114970E-1,6.509774923E-1,9.522510529E0
1.396956568E0,1.597124934E-1,6.845145226E-1,9.632703781E0
1.402005370E0,2.172044963E-1,7.396110296E-1,9.726128578E0
1.407056776E0,2.794874907E-1,7.755435109E-1,9.833926201E0
1.412108130E0,3.010469973E-1,7.731480002E-1,9.879440308E0
1.417159536E0,2.675099969E-1,7.491930127E-1,9.843507767E0
1.422210943E0,1.525260061E-1,6.940965056E-1,9.795598030E0
1.427262297E0,2.556449920E-2,6.845145226E-1,9.781225204E0
1.432279380E0,-1.036799978E-2,7.036784887E-1,9.704568863E0
1.437330786E0,-5.109149963E-2,7.084695101E-1,9.678218842E0
1.442382141E0,-3.432299942E-2,7.036784887E-1,9.618330956E0
1.447433547E0,2.077350020E-2,7.324244976E-1,9.620726585E0
1.452484953E0,1.764809936E-1,7.731480002E-1,9.680614471E0
1.457536307E0,2.914650142E-1,8.474084735E-1,9.726128578E0
1.462604276E0,3.705165088E-1,8.905274868E-1,9.790806770E0
1.467655630E0,4.232175052E-1,9.216690063E-1,9.845903397E0
1.472707036E0,4.902915061E-1,9.072960019E-1,9.956096649E0
1.477758391E0,5.214329958E-1,9.168779850E-1,9.972865105E0
1.482809797E0,4.519635141E-1,8.641769886E-1,9.936932564E0
1.487861151E0,3.513525128E-1,7.851254940E-1,9.867463112E0
1.492910891E0,1.621080041E-1,7.180514932E-1,9.759665489E0
1.497962297E0,-3.181499895E-3,6.102539897E-1,9.630308151E0
1.503013651E0,-1.133745015E-1,5.934854746E-1,9.560838699E0
1.508065057E0,-1.349339932E-1,6.318135262E-1,9.568025589E0
1.513116411E0,-6.546449661E-2,6.940965056E-1,9.580002785E0
1.518167818E0,8.795999922E-3,7.707524896E-1,9.675823212E0
1.523213078E0,8.784750104E-2,7.947074771E-1,9.764456749E0
1.528264484E0,1.597124934E-1,7.420064807E-1,9.821948051E0
1.533315839E0,1.812720001E-1,7.444019914E-1,9.905791283E0
1.538367245E0,2.100179940E-1,7.923120260E-1,9.941723824E0
1.543418599E0,2.699055076E-1,7.923120260E-1,1.000161076E1
1.548470005E0,3.058379889E-1,7.971029878E-1,9.999215126E0
1.553520891E0,2.938604951E-1,8.330355287E-1,1.008545303E1
1.558572297E0,2.435549945E-1,8.042895198E-1,1.006628990E1
1.563623651E0,1.309664994E-1,7.156559825E-1,1.001358891E1
1.568675057E0,-1.036799978E-2,6.198359728E-1,9.951305389E0
1.573726411E0,-9.421049803E-2,5.216205120E-1,9.821948051E0
1.578777818E0,-1.109789982E-1,4.808970094E-1,9.778829575E0
1.583821776E0,-9.181500226E-2,4.904789925E-1,9.812366486E0
1.588873182E0,-6.067350134E-2,4.928745031E-1,9.778829575E0
1.593924536E0,-3.192749992E-2,5.264114738E-1,9.742897034E0
1.598975943E0,-3.192749992E-2,6.270225048E-1,9.778829575E0
1.604027297E0,3.514650092E-2,7.324244976E-1,9.879440308E0
1.609078703E0,1.358699985E-2,8.569905162E-1,9.862671852E0
1.614105161E0,3.275100142E-2,9.815564752E-1,9.927350044E0
1.619156516E0,1.405484974E-1,1.034257531E0,9.984842300E0
1.624207922E0,1.908539981E-1,1.041443944E0,9.934536934E0
1.629259328E0,3.082334995E-1,9.743700027E-1,9.857880592E0
1.634310682E0,3.561435044E-1,9.552059770E-1,9.747688293E0
1.639362036E0,3.920759857E-1,8.953185081E-1,9.663845062E0
1.644421099E0,3.393749893E-1,8.234534860E-1,9.570421219E0
1.649472505E0,2.866739929E-1,7.947074771E-1,9.529697418E0
1.654523859E0,1.836674958E-1,8.138715029E-1,9.517720222E0
1.659575266E0,7.347449660E-2,7.539839745E-1,9.457832336E0
1.664626620E0,-1.276350021E-2,6.581640244E-1,9.457832336E0
1.669678026E0,-9.181500226E-2,6.318135262E-1,9.476996422E0
1.674729484E0,-1.397249997E-1,5.934854746E-1,9.484183311E0
1.679780839E0,-1.564934999E-1,5.599485040E-1,9.510533333E0
1.684832245E0,-2.067990005E-1,6.174405217E-1,9.577607155E0
1.689883599E0,-2.547090054E-1,7.180514932E-1,9.723732948E0
1.694935005E0,-2.810595036E-1,7.683569789E-1,9.857880592E0
1.699986359E0,-2.618955076E-1,8.498039842E-1,9.956096649E0
1.705038443E0,-2.044035047E-1,8.665724993E-1,1.007587147E1
1.710089797E0,-7.025550306E-2,8.737589717E-1,1.013336372E1
1.715141203E0,4.472849891E-2,8.833410144E-1,1.009982681E1
1.720192557E0,5.910149962E-2,8.450130224E-1,1.000161076E1
1.725243964E0,3.514650092E-2,7.923120260E-1,9.929745674E0
1.730295318E0,-7.859999896E-4,7.420064807E-1,9.817157745E0
1.735340578E0,-4.869600013E-2,7.108650208E-1,9.723732948E0
1.740391932E0,-7.744199783E-2,6.605594754E-1,9.577607155E0
1.745443339E0,-1.013970003E-1,6.485819817E-1,9.493764877E0
1.750494693E0,-1.469115019E-1,6.294180155E-1,9.450646400E0
1.755546099E0,-1.421204954E-1,6.821190119E-1,9.397945404E0
1.760597453E0,-9.181500226E-2,7.180514932E-1,9.412318230E0
1.765646984E0,-1.061879992E-1,7.563794851E-1,9.433877945E0
1.770698339E0,-1.373295039E-1,7.635660172E-1,9.503347397E0
1.775749745E0,-1.564934999E-1,7.851254940E-1,9.603958130E0
1.780801099E0,-9.181500226E-2,7.923120260E-1,9.692591667E0
1.785852505E0,-8.223299682E-2,7.923120260E-1,9.759665489E0
1.790903859E0,-5.588249862E-2,7.923120260E-1,9.812366486E0
1.795937922E0,-8.702400327E-2,7.563794851E-1,9.869858742E0
1.800989328E0,-1.564934999E-1,7.132604718E-1,9.905791283E0
1.806040682E0,-2.020079941E-1,7.180514932E-1,9.941723824E0
1.811092089E0,-2.163809985E-1,6.677460074E-1,9.941723824E0
1.816143443E0,-2.499179989E-1,6.126495004E-1,9.932141304E0
1.821194849E0,-2.475225031E-1,5.934854746E-1,9.944119453E0
1.826210422E0,-2.475225031E-1,6.078584790E-1,9.941723824E0
1.831261828E0,-2.499179989E-1,6.222314835E-1,9.924955368E0
1.836313182E0,-2.067990005E-1,6.557685137E-1,9.896208763E0
1.841364589E0,-1.660754979E-1,7.060739994E-1,9.877044678E0
1.846415943E0,-8.223299682E-2,7.396110296E-1,9.857880592E0
1.851467349E0,4.951950163E-2,7.396110296E-1,9.838717461E0
1.856527297E0,1.285710037E-1,8.186625242E-1,9.814762115E0
1.861578651E0,1.261754930E-1,8.617814779E-1,9.807575226E0
1.866630057E0,1.429439932E-1,8.833410144E-1,9.829134941E0
1.871681411E0,8.784750104E-2,8.785499930E-1,9.759665489E0
1.876732818E0,1.070114970E-1,8.857365251E-1,9.735710144E0
1.881784172E0,8.066099882E-2,8.665724993E-1,9.687800407E0
1.886848859E0,1.022204980E-1,8.330355287E-1,9.632703781E0
1.891900214E0,8.066099882E-2,8.210579753E-1,9.651867867E0
1.896951620E0,2.796000056E-2,7.971029878E-1,9.620726585E0
1.902002974E0,-3.911399841E-2,7.635660172E-1,9.594375610E0
1.907054380E0,-1.205610037E-1,7.252380252E-1,9.594375610E0
1.912105786E0,-2.427314967E-1,6.917009950E-1,9.613539696E0
1.917168703E0,-3.768795133E-1,6.318135262E-1,9.591980934E0
1.922220057E0,-4.223940074E-1,5.934854746E-1,9.594375610E0
1.927271464E0,-4.583264887E-1,5.982764959E-1,9.625517845E0
1.932322818E0,-4.128119946E-1,6.102539897E-1,9.706964493E0
1.937374224E0,-3.289695084E-1,6.940965056E-1,9.759665489E0
1.942425578E0,-1.852394938E-1,7.731480002E-1,9.829134941E0
1.947460682E0,-7.744199783E-2,7.947074771E-1,9.910581589E0
1.952512089E0,2.796000056E-2,8.833410144E-1,9.960887909E0
1.957563443E0,1.237799972E-1,9.839519858E-1,9.999215126E0
1.962614849E0,1.213845015E-1,9.935340285E-1,9.996820450E0
1.967666255E0,1.309664994E-1,9.887430072E-1,9.941723824E0
1.972717609E0,9.503400326E-2,1.015093446E0,9.934536934E0
1.977773286E0,3.514650092E-2,9.791610241E-1,9.881835938E0
1.982824693E0,-2.953200042E-2,9.599969983E-1,9.817157745E0
1.987876047E0,-9.181500226E-2,8.761544824E-1,9.764456749E0
1.992927453E0,-1.972170025E-1,7.875210047E-1,9.714151382E0
1.997978859E0,-2.475225031E-1,7.851254940E-1,9.654263496E0
2.003030214E0,-1.924259961E-1,7.994984984E-1,9.718941689E0
2.008059380E0,-1.445160061E-1,8.186625242E-1,9.723732948E0
2.013110734E0,-1.732620001E-1,8.258489966E-1,9.714151382E0
2.018162141E0,-2.067990005E-1,8.138715029E-1,9.697382927E0
2.023213495E0,-2.499179989E-1,7.803344727E-1,9.675823212E0
2.028264901E0,-3.361560106E-1,7.851254940E-1,9.745292664E0
2.033316255E0,-3.169920146E-1,8.234534860E-1,9.843507767E0
2.038376828E0,-2.283585072E-1,9.025049806E-1,9.934536934E0
2.043428234E0,-1.876350045E-1,9.049004912E-1,9.977656364E0
2.048479589E0,-1.013970003E-1,9.001095295E-1,1.003754330E1
2.053530995E0,1.119150035E-2,8.737589717E-1,1.005431175E1
2.058582349E0,7.107900083E-2,8.833410144E-1,1.007826710E1
2.063633755E0,5.910149962E-2,8.689680099E-1,1.008545303E1
2.068682870E0,6.400499959E-3,8.138715029E-1,1.004233456E1
2.073733703E0,-4.869600013E-2,8.306400180E-1,1.004712582E1
2.078784484E0,-8.462850004E-2,8.641769886E-1,1.005670738E1
2.083835266E0,-8.941949904E-2,8.833410144E-1,1.003035736E1
2.088886047E0,-6.306900084E-2,8.881319761E-1,9.963282585E0
2.093936828E0,-8.223299682E-2,8.474084735E-1,9.922559738E0
2.098988339E0,-1.061879992E-1,8.258489966E-1,9.869858742E0
2.104039172E0,-6.546449661E-2,8.617814779E-1,9.831530571E0
2.109089901E0,-1.036799978E-2,8.929229975E-1,9.740501404E0
2.114140734E0,-5.576999858E-3,9.456239939E-1,9.694987297E0
2.119191516E0,1.358699985E-2,9.911385179E-1,9.687800407E0
2.124242297E0,-1.036799978E-2,1.010302544E0,9.639890671E0
2.129296359E0,-6.067350134E-2,9.767655134E-1,9.615935326E0
2.134347141E0,-5.827800184E-2,9.671834707E-1,9.649472237E0
2.139397922E0,-8.941949904E-2,9.959294796E-1,9.685404778E0
2.144448755E0,-6.306900084E-2,9.767655134E-1,9.704568863E0
2.149499536E0,-3.671849892E-2,9.599969983E-1,9.694987297E0
2.154550318E0,1.358699985E-2,9.456239939E-1,9.685404778E0
2.159596203E0,5.670600012E-2,9.671834707E-1,9.699777603E0
2.164646984E0,1.837800071E-2,9.647880197E-1,9.702173233E0
2.169697766E0,-3.911399841E-2,9.456239939E-1,9.721337318E0
2.174748547E0,-4.390500113E-2,9.072960019E-1,9.709360123E0
2.179799328E0,-4.869600013E-2,8.881319761E-1,9.697382927E0
2.184850109E0,-1.755449921E-2,8.737589717E-1,9.714151382E0
2.189897297E0,4.004999995E-3,9.001095295E-1,9.766852379E0
2.194948078E0,-3.671849892E-2,9.168779850E-1,9.776433945E0
2.199998859E0,-3.432299942E-2,8.617814779E-1,9.793202400E0
2.205049589E0,-5.109149963E-2,7.707524896E-1,9.812366486E0
2.210100422E0,-4.869600013E-2,7.372155190E-1,9.805179596E0
2.215151203E0,-7.983750105E-2,7.372155190E-1,9.781225204E0
2.220204849E0,-1.181655005E-1,7.515885234E-1,9.845903397E0
2.225255630E0,-1.301430017E-1,8.306400180E-1,9.850694656E0
2.230306411E0,-1.277475059E-1,8.545950055E-1,9.848299026E0
2.235357193E0,-1.493069977E-1,9.072960019E-1,9.889022827E0
2.240408026E0,-1.277475059E-1,9.312509894E-1,9.936932564E0
2.245458807E0,-5.109149963E-2,9.456239939E-1,9.910581589E0
2.250502089E0,3.514650092E-2,9.599969983E-1,9.879440308E0
2.255552922E0,1.333619952E-1,9.576014876E-1,9.869858742E0
2.260603651E0,1.692945063E-1,9.911385179E-1,9.833926201E0
2.265654432E0,1.165935025E-1,9.432284832E-1,9.721337318E0
2.270705266E0,1.118025035E-1,8.881319761E-1,9.584794044E0
2.275755995E0,8.066099882E-2,8.809455037E-1,9.512928963E0
2.280795891E0,4.233299941E-2,8.498039842E-1,9.424295425E0
2.285846672E0,-1.276350021E-2,8.378264904E-1,9.390758514E0
2.290897453E0,-2.713650092E-2,8.593860269E-1,9.393154144E0
2.295948234E0,-2.234550007E-2,8.330355287E-1,9.419504166E0
2.300999016E0,-4.390500113E-2,8.521994948E-1,9.453041077E0
2.306049797E0,-1.276350021E-2,9.001095295E-1,9.510533333E0
2.311096672E0,5.910149962E-2,9.120870233E-1,9.510533333E0
2.316147453E0,9.024299681E-2,9.144824743E-1,9.577607155E0
2.321198286E0,7.826550305E-2,9.336465001E-1,9.544070244E0
2.326249068E0,5.431050062E-2,9.312509894E-1,9.580002785E0
2.331299797E0,8.795999922E-3,9.336465001E-1,9.570421219E0
2.336350578E0,1.837800071E-2,9.504150152E-1,9.560838699E0
2.341399276E0,3.035550006E-2,9.671834707E-1,9.608749390E0
2.346450057E0,3.275100142E-2,9.528105259E-1,9.591980934E0
2.351500839E0,3.514650092E-2,9.360420108E-1,9.627913475E0
2.356551620E0,6.400499959E-3,9.120870233E-1,9.613539696E0
2.361602453E0,-2.234550007E-2,9.120870233E-1,9.637495041E0
2.366653234E0,-7.025550306E-2,9.168779850E-1,9.623122215E0
2.371725943E0,-9.181500226E-2,8.857365251E-1,9.580002785E0
2.376776724E0,-1.061879992E-1,7.851254940E-1,9.565629959E0
2.381827505E0,-1.445160061E-1,8.042895198E-1,9.558443069E0
2.386878286E0,-2.115900069E-1,8.306400180E-1,9.522510529E0
2.391929068E0,-2.211720049E-1,8.665724993E-1,9.575211525E0
2.396979849E0,-2.475225031E-1,8.761544824E-1,9.582398415E0
2.402017141E0,-2.355449945E-1,9.192734957E-1,9.687800407E0
2.407067922E0,-2.067990005E-1,9.264600277E-1,9.800389290E0
2.412118703E0,-1.325384974E-1,9.384375215E-1,9.857880592E0
2.417169484E0,-7.983750105E-2,9.288554788E-1,9.896208763E0
2.422220266E0,-4.390500113E-2,9.480195045E-1,9.905791283E0
2.427271099E0,-5.109149963E-2,9.767655134E-1,9.922559738E0
2.432320109E0,-7.983750105E-2,9.983249903E-1,9.927350044E0
2.437370891E0,-9.660600126E-2,9.743700027E-1,9.901000023E0
2.442421672E0,-1.588889956E-1,9.192734957E-1,9.927350044E0
2.447472505E0,-1.469115019E-1,8.689680099E-1,9.879440308E0
2.452523234E0,-1.277475059E-1,8.977140188E-1,9.836321831E0
2.457574016E0,-1.397249997E-1,9.025049806E-1,9.805179596E0
2.462620422E0,-1.732620001E-1,8.929229975E-1,9.795598030E0
2.467671203E0,-1.708665043E-1,9.576014876E-1,9.726128578E0
2.472721984E0,-1.469115019E-1,9.623925090E-1,9.714151382E0
2.477772766E0,-1.397249997E-1,9.839519858E-1,9.671031952E0
2.482823547E0,-7.744199783E-2,1.007907033E0,9.651867867E0
2.487874328E0,-3.432299942E-2,1.012698054E0,9.678218842E0
2.492943182E0,-2.234550007E-2,1.003116012E0,9.651867867E0
2.497993964E0,-2.234550007E-2,9.815564752E-1,9.635099411E0
2.503044745E0,-1.276350021E-2,9.599969983E-1,9.663845062E0
2.508095526E0,-3.192749992E-2,9.480195045E-1,9.714151382E0
2.513146307E0,-3.671849892E-2,9.456239939E-1,9.752478600E0
2.518197089E0,-4.869600013E-2,9.336465001E-1,9.762061119E0
2.523215370E0,-5.348699912E-2,9.240645170E-1,9.800389290E0
2.528266203E0,-4.630050063E-2,9.168779850E-1,9.843507767E0
2.533316984E0,-7.859999896E-4,9.096915126E-1,9.862671852E0
2.538367714E0,1.598249935E-2,9.144824743E-1,9.831530571E0
2.543418547E0,3.275100142E-2,8.761544824E-1,9.872254372E0
2.548469328E0,4.712399840E-2,8.881319761E-1,9.850694656E0
2.553521724E0,3.993749991E-2,8.641769886E-1,9.862671852E0
2.558572505E0,2.077350020E-2,8.330355287E-1,9.814762115E0
2.563623286E0,-1.755449921E-2,8.569905162E-1,9.776433945E0
2.568674068E0,2.796000056E-2,9.168779850E-1,9.728524208E0
2.573724901E0,5.431050062E-2,9.480195045E-1,9.716546059E0
2.578775682E0,9.024299681E-2,9.623925090E-1,9.733315468E0
2.583846359E0,9.742949903E-2,9.959294796E-1,9.764456749E0
2.588897141E0,1.597124934E-1,1.041443944E0,9.838717461E0
2.593947922E0,1.549215019E-1,1.096540451E0,9.903395653E0
2.598998703E0,1.165935025E-1,1.108518004E0,9.948909760E0
2.604049536E0,1.094070002E-1,1.079771996E0,1.001837921E1
2.609100266E0,1.285710037E-1,1.058212519E0,1.007587147E1
2.614136932E0,1.453395039E-1,1.043839455E0,1.009982681E1
2.619187714E0,1.213845015E-1,9.576014876E-1,1.011180401E1
2.624238495E0,4.712399840E-2,9.216690063E-1,1.008784866E1
2.629289276E0,-5.588249862E-2,8.234534860E-1,1.010222244E1
2.634340057E0,-1.037925035E-1,8.498039842E-1,1.012378120E1
2.639390839E0,-1.588889956E-1,8.306400180E-1,1.012138557E1
2.644445839E0,-2.067990005E-1,7.971029878E-1,1.005670738E1
2.649496620E0,-1.972170025E-1,7.707524896E-1,9.999215126E0
2.654547401E0,-1.564934999E-1,7.515885234E-1,9.970469475E0
2.659598182E0,-1.636800021E-1,8.042895198E-1,9.968073845E0
2.664648964E0,-1.540980041E-1,8.498039842E-1,9.989633560E0
2.669699745E0,-1.181655005E-1,8.761544824E-1,1.000400639E1
2.674829380E0,-9.181500226E-2,9.384375215E-1,1.002556610E1
2.679880161E0,-2.953200042E-2,9.312509894E-1,1.003275204E1
2.684930943E0,1.598249935E-2,9.408329725E-1,1.006868458E1
2.689981724E0,3.993749991E-2,9.647880197E-1,1.002796173E1
2.695032505E0,8.305650204E-2,9.432284832E-1,9.984842300E0
2.700083339E0,1.094070002E-1,9.408329725E-1,9.917768478E0
2.705024224E0,1.046160012E-1,9.576014876E-1,9.898604393E0
2.710075005E0,3.754200041E-2,9.120870233E-1,9.826739311E0
2.715125786E0,-5.576999858E-3,8.953185081E-1,9.783620834E0
2.720176568E0,-4.390500113E-2,9.336465001E-1,9.778829575E0
2.725227349E0,-6.306900084E-2,8.833410144E-1,9.745292664E0
2.730278130E0,-1.037925035E-1,9.144824743E-1,9.740501404E0
2.735330214E0,-1.373295039E-1,9.096915126E-1,9.716546059E0
2.740380995E0,-1.037925035E-1,8.737589717E-1,9.709360123E0
2.745431776E0,-1.013970003E-1,8.785499930E-1,9.716546059E0
2.750482557E0,-7.504650205E-2,8.186625242E-1,9.733315468E0
2.755533339E0,-1.181655005E-1,7.947074771E-1,9.697382927E0
2.760584120E0,-1.493069977E-1,8.042895198E-1,9.733315468E0
2.765640370E0,-1.301430017E-1,8.162670135E-1,9.831530571E0
2.770691151E0,-8.462850004E-2,8.354309797E-1,9.884231567E0
2.775741932E0,-5.588249862E-2,8.378264904E-1,9.968073845E0
2.780792714E0,-7.972500287E-3,8.306400180E-1,1.011419964E1
2.785843495E0,5.910149962E-2,8.498039842E-1,1.013575935E1
2.790894276E0,7.107900083E-2,8.785499930E-1,1.014773655E1
2.795939589E0,7.586999983E-2,8.545950055E-1,1.016929626E1
2.800990370E0,9.263850003E-2,8.689680099E-1,1.014054966E1
2.806041151E0,1.141979992E-1,8.977140188E-1,1.015013218E1
2.811091932E0,1.525260061E-1,9.336465001E-1,1.018606472E1
2.816142714E0,1.668989956E-1,9.911385179E-1,1.018846035E1
2.821193495E0,1.285710037E-1,9.863474965E-1,1.011659527E1
2.826249484E0,1.213845015E-1,1.017488956E0,9.989633560E0
2.831300266E0,5.431050062E-2,1.031862020E0,9.872254372E0
2.836351047E0,-1.301430017E-1,9.911385179E-1,9.721337318E0
2.841401828E0,-2.547090054E-1,9.743700027E-1,9.570421219E0
2.846452609E0,-3.481335044E-1,9.312509894E-1,9.467414856E0
2.851503391E0,-3.888570070E-1,8.713635206E-1,9.335661888E0
2.856566776E0,-3.792749941E-1,9.096915126E-1,9.273379326E0
2.861617557E0,-3.361560106E-1,9.432284832E-1,9.275774956E0
2.866668286E0,-2.906414866E-1,9.839519858E-1,9.270983696E0
2.871719068E0,-2.139855027E-1,1.022279978E0,9.287752151E0
2.876769901E0,-2.259629965E-1,1.003116012E0,9.323684692E0
2.881820682E0,-2.020079941E-1,9.839519858E-1,9.330870628E0
2.886854276E0,-1.588889956E-1,1.005511522E0,9.347639084E0
2.891905057E0,-7.025550306E-2,1.039048553E0,9.457832336E0
2.896955839E0,-3.181499895E-3,1.043839455E0,9.548861504E0
2.902006620E0,9.742949903E-2,1.077376485E0,9.606353760E0
2.907057401E0,1.333619952E-1,1.130077481E0,9.692591667E0
2.912108182E0,1.213845015E-1,1.130077481E0,9.786016464E0
2.917153703E0,6.149699911E-2,1.149241447E0,9.855485916E0
2.922204484E0,3.993749991E-2,1.130077481E0,9.901000023E0
2.927255266E0,-1.515899971E-2,1.113309026E0,9.917768478E0
2.932306047E0,-6.546449661E-2,1.072585464E0,9.881835938E0
2.937356828E0,-1.013970003E-1,1.043839455E0,9.872254372E0
2.942407609E0,-1.948215067E-1,9.887430072E-1,9.891418457E0
2.947467505E0,-2.187764943E-1,1.005511522E0,9.874649048E0
2.952518286E0,-2.211720049E-1,1.017488956E0,9.838717461E0
2.957569016E0,-3.193874955E-1,9.887430072E-1,9.800389290E0
2.962619797E0,-3.649019897E-1,9.599969983E-1,9.730919838E0
2.967670578E0,-3.720884919E-1,9.384375215E-1,9.723732948E0
2.972721411E0,-3.601109982E-1,9.384375215E-1,9.750083923E0
2.977793807E0,-2.786639929E-1,9.743700027E-1,9.733315468E0
2.982844589E0,-2.403360009E-1,1.012698054E0,9.814762115E0
2.987895370E0,-1.900305003E-1,1.029466510E0,9.929745674E0
2.992946151E0,-1.540980041E-1,1.079771996E0,1.000161076E1
2.997996932E0,-4.630050063E-2,1.106122494E0,1.006628990E1
3.003047714E0,1.119150035E-2,1.089354038E0,1.010222244E1
3.008091828E0,8.305650204E-2,1.120495558E0,1.011180401E1
3.013142609E0,1.189889982E-1,1.125286460E0,1.009263992E1
3.018193391E0,1.022204980E-1,1.077376485E0,1.007826710E1
3.023244172E0,9.742949903E-2,1.067794442E0,1.005191612E1
3.028294953E0,7.586999983E-2,1.060608029E0,9.977656364E0
3.033345786E0,-7.859999896E-4,1.029466510E0,9.941723824E0
3.038400057E0,-1.755449921E-2,1.036653042E0,9.936932564E0
3.043450891E0,-6.546449661E-2,1.019884467E0,9.889022827E0
3.048501620E0,-1.253519952E-1,1.029466510E0,9.838717461E0
3.053552401E0,-1.277475059E-1,1.010302544E0,9.728524208E0
3.058603234E0,-1.636800021E-1,1.017488956E0,9.671031952E0
3.063654016E0,-2.283585072E-1,1.010302544E0,9.661450386E0
3.068690005E0,-2.163809985E-1,1.034257531E0,9.651867867E0
3.073740630E0,-2.642909884E-1,1.074980974E0,9.651867867E0
3.078791203E0,-2.906414866E-1,1.098935962E0,9.666240692E0
3.083841828E0,-2.978279889E-1,1.070189953E0,9.721337318E0
3.088892401E0,-2.882460058E-1,1.113309026E0,9.774038315E0
3.093943026E0,-2.499179989E-1,1.132472992E0,9.838717461E0
3.099016151E0,-2.187764943E-1,1.144450545E0,9.829134941E0
3.104066724E0,-1.469115019E-1,1.161219001E0,9.831530571E0
3.109117297E0,-8.223299682E-2,1.158823490E0,9.841112137E0
3.114167922E0,-5.588249862E-2,1.156427979E0,9.817157745E0
3.119218495E0,-2.474099956E-2,1.134868503E0,9.740501404E0
3.124269120E0,4.004999995E-3,1.127681971E0,9.685404778E0
3.129321932E0,-1.036799978E-2,1.120495558E0,9.577607155E0
3.134372505E0,-7.025550306E-2,1.127681971E0,9.474600792E0
3.139423078E0,-1.109789982E-1,1.118100047E0,9.371594429E0
3.144473703E0,-1.349339932E-1,1.122890949E0,9.314102173E0
3.149524224E0,-1.804485023E-1,1.132472992E0,9.275774956E0
3.154574849E0,-2.044035047E-1,1.108518004E0,9.242237091E0
3.159628547E0,-2.115900069E-1,1.115704536E0,9.314102173E0
3.164679120E0,-2.499179989E-1,1.163614511E0,9.393154144E0
3.169729693E0,-2.618955076E-1,1.173196554E0,9.419504166E0
3.174780318E0,-2.523134947E-1,1.142055035E0,9.484183311E0
3.179830891E0,-2.331494987E-1,1.103726983E0,9.515324593E0
3.184881464E0,-1.948215067E-1,1.060608029E0,9.558443069E0
3.189915839E0,-1.828439981E-1,1.046234965E0,9.601562500E0
3.194966464E0,-1.253519952E-1,1.096540451E0,9.656659126E0
3.200017036E0,-9.421049803E-2,1.106122494E0,9.759665489E0
3.205067661E0,-1.181655005E-1,1.098935962E0,9.795598030E0
3.210118234E0,-1.037925035E-1,1.079771996E0,9.776433945E0
3.215168807E0,-1.109789982E-1,1.072585464E0,9.790806770E0
3.220237505E0,-1.540980041E-1,1.039048553E0,9.845903397E0
3.225288078E0,-1.397249997E-1,1.051025987E0,9.850694656E0
3.230338651E0,-1.732620001E-1,1.000720501E0,9.805179596E0
3.235389276E0,-1.852394938E-1,9.695789814E-1,9.841112137E0
3.240439849E0,-1.996124983E-1,9.887430072E-1,9.881835938E0
3.245490474E0,-1.253519952E-1,9.623925090E-1,9.879440308E0
3.250529068E0,-1.660754979E-1,9.695789814E-1,9.891418457E0
3.255579641E0,-2.163809985E-1,9.552059770E-1,9.853090286E0
3.260630214E0,-2.738730013E-1,9.120870233E-1,9.821948051E0
3.265680839E0,-3.481335044E-1,9.216690063E-1,9.795598030E0
3.270731411E0,-4.128119946E-1,9.096915126E-1,9.757269859E0
3.275782036E0,-4.176029861E-1,8.593860269E-1,9.788411140E0
3.280809536E0,-4.439535141E-1,8.737589717E-1,9.774038315E0
3.285860161E0,-4.128119946E-1,8.737589717E-1,9.821948051E0
3.290910734E0,-3.984389901E-1,8.569905162E-1,9.807575226E0
3.295961307E0,-4.343715012E-1,8.569905162E-1,9.838717461E0
3.301011880E0,-4.128119946E-1,8.234534860E-1,9.850694656E0
3.306062453E0,-3.577154875E-1,8.162670135E-1,9.869858742E0
3.311141411E0,-3.122009933E-1,8.617814779E-1,9.927350044E0
3.316191984E0,-2.882460058E-1,9.072960019E-1,9.944119453E0
3.321242609E0,-2.547090054E-1,9.647880197E-1,1.002796173E1
3.326293182E0,-1.972170025E-1,9.863474965E-1,1.001358891E1
3.331343755E0,-1.540980041E-1,1.003116012E0,9.996820450E0
3.336394380E0,-8.702400327E-2,1.003116012E0,9.987237930E0
3.341449276E0,-4.390500113E-2,1.003116012E0,9.924955368E0
3.346499849E0,-5.348699912E-2,9.911385179E-1,9.838717461E0
3.351550474E0,-6.785999984E-2,9.719744921E-1,9.733315468E0
3.356601047E0,-1.061879992E-1,1.019884467E0,9.702173233E0
3.361651620E0,-1.756574959E-1,1.072585464E0,9.642286301E0
3.366702193E0,-2.331494987E-1,1.113309026E0,9.611144066E0
3.371736151E0,-1.876350045E-1,1.118100047E0,9.601562500E0
3.376786724E0,-1.445160061E-1,1.142055035E0,9.661450386E0
3.381837349E0,-1.732620001E-1,1.134868503E0,9.683009148E0
3.386887922E0,-1.349339932E-1,1.103726983E0,9.697382927E0
3.391938495E0,-1.133745015E-1,1.120495558E0,9.656659126E0
3.396989120E0,-1.181655005E-1,1.079771996E0,9.673427582E0
3.402029172E0,-1.085835025E-1,1.096540451E0,9.699777603E0
3.407079797E0,-1.037925035E-1,1.139659524E0,9.754874229E0
3.412130370E0,-7.983750105E-2,1.161219001E0,9.800389290E0
3.417180943E0,-1.995000057E-2,1.189965010E0,9.817157745E0
3.422231568E0,8.795999922E-3,1.185173988E0,9.850694656E0
3.427282141E0,3.035550006E-2,1.163614511E0,9.867463112E0
3.432353859E0,6.868349761E-2,1.154032469E0,9.833926201E0
3.437404432E0,5.670600012E-2,1.151636958E0,9.826739311E0
3.442455057E0,1.358699985E-2,1.144450545E0,9.843507767E0
3.447505630E0,-1.995000057E-2,1.134868503E0,9.800389290E0
3.452556203E0,-3.432299942E-2,1.161219001E0,9.790806770E0
3.457606828E0,-7.504650205E-2,1.189965010E0,9.833926201E0
3.462644172E0,-7.744199783E-2,1.230688453E0,9.807575226E0
3.467694797E0,-5.588249862E-2,1.213919997E0,9.824343681E0
3.472745370E0,-4.869600013E-2,1.199547052E0,9.881835938E0
3.477795943E0,-2.953200042E-2,1.170801044E0,9.893813133E0
3.482846568E0,-3.181499895E-3,1.173196554E0,9.853090286E0
3.487897141E0,2.796000056E-2,1.118100047E0,9.776433945E0
3.492944276E0,5.191500112E-2,1.156427979E0,9.711755753E0
3.497994849E0,1.837800071E-2,1.170801044E0,9.747688293E0
3.503045474E0,1.609500032E-3,1.180382967E0,9.714151382E0
3.508096047E0,-1.515899971E-2,1.206733465E0,9.683009148E0
3.513146620E0,-2.474099956E-2,1.211524487E0,9.683009148E0
3.518197245E0,-5.109149963E-2,1.209128976E0,9.642286301E0
3.523243755E0,-5.109149963E-2,1.180382967E0,9.637495041E0
3.528294328E0,-1.515899971E-2,1.199547052E0,9.666240692E0
3.533344953E0,-7.972500287E-3,1.173196554E0,9.649472237E0
3.538395526E0,-2.713650092E-2,1.182778478E0,9.623122215E0
3.543446099E0,-3.671849892E-2,1.194756031E0,9.647076607E0
3.548496724E0,-5.588249862E-2,1.180382967E0,9.678218842E0
3.553583911E0,-2.713650092E-2,1.168405533E0,9.651867867E0
3.558634484E0,-2.474099956E-2,1.103726983E0,9.651867867E0
3.563685057E0,-2.713650092E-2,1.060608029E0,9.673427582E0
3.568735682E0,1.119150035E-2,1.082167506E0,9.697382927E0
3.573786307E0,-3.181499895E-3,1.113309026E0,9.723732948E0
3.578836880E0,-2.234550007E-2,1.149241447E0,9.769247055E0
3.583851411E0,-4.390500113E-2,1.177987456E0,9.826739311E0
3.588902036E0,-3.432299942E-2,1.161219001E0,9.850694656E0
3.593952609E0,-1.276350021E-2,1.161219001E0,9.841112137E0
3.599003182E0,-3.181499895E-3,1.154032469E0,9.824343681E0
3.604053807E0,-1.755449921E-2,1.098935962E0,9.833926201E0
3.609104380E0,-2.234550007E-2,1.067794442E0,9.850694656E0
3.614157297E0,-6.546449661E-2,1.110913515E0,9.912977219E0
3.619207922E0,-4.869600013E-2,1.110913515E0,9.917768478E0
3.624258495E0,-8.702400327E-2,1.103726983E0,9.994424820E0
3.629309120E0,-9.181500226E-2,1.043839455E0,9.982446671E0
3.634359693E0,-7.504650205E-2,1.029466510E0,9.946514130E0
3.639410266E0,-8.223299682E-2,1.027070999E0,9.929745674E0
3.644459068E0,-8.223299682E-2,1.010302544E0,9.901000023E0
3.649509693E0,-7.265099883E-2,1.043839455E0,9.898604393E0
3.654560266E0,-5.348699912E-2,1.055817008E0,9.848299026E0
3.659610891E0,-7.504650205E-2,1.065399051E0,9.821948051E0
3.664661464E0,-1.061879992E-1,1.055817008E0,9.841112137E0
3.669712036E0,-8.223299682E-2,1.065399051E0,9.805179596E0
3.674773859E0,-7.504650205E-2,1.108518004E0,9.750083923E0
3.679824484E0,-1.013970003E-1,1.046234965E0,9.714151382E0
3.684875057E0,-9.421049803E-2,1.070189953E0,9.706964493E0
3.689925630E0,-7.025550306E-2,1.151636958E0,9.685404778E0
3.694976203E0,-7.972500287E-3,1.216315508E0,9.625517845E0
3.700026828E0,1.598249935E-2,1.240270495E0,9.611144066E0
3.705076307E0,3.754200041E-2,1.237874985E0,9.615935326E0
3.710126932E0,3.754200041E-2,1.283389449E0,9.577607155E0
3.715177505E0,4.233299941E-2,1.324113011E0,9.558443069E0
3.720228078E0,1.358699985E-2,1.309739947E0,9.529697418E0
3.725278651E0,4.712399840E-2,1.307344556E0,9.515324593E0
3.730329276E0,7.107900083E-2,1.273807526E0,9.508137703E0
3.735380370E0,5.910149962E-2,1.249852538E0,9.529697418E0
3.740430995E0,4.233299941E-2,1.242666006E0,9.570421219E0
3.745481568E0,6.400499959E-3,1.254643559E0,9.651867867E0
3.750532141E0,-5.576999858E-3,1.201942444E0,9.685404778E0
3.755582766E0,-1.036799978E-2,1.146846056E0,9.723732948E0
3.760633339E0,-3.192749992E-2,1.115704536E0,9.745292664E0
3.765670578E0,-5.348699912E-2,1.110913515E0,9.745292664E0
3.770721203E0,-4.150950164E-2,1.137264013E0,9.795598030E0
3.775771776E0,-5.576999858E-3,1.127681971E0,9.821948051E0
3.780822349E0,-1.515899971E-2,1.127681971E0,9.805179596E0
3.785872922E0,-1.036799978E-2,1.127681971E0,9.831530571E0
3.790923495E0,-4.630050063E-2,1.106122494E0,9.889022827E0
3.795986099E0,-8.702400327E-2,1.098935962E0,9.884231567E0
3.801036724E0,-9.660600126E-2,1.082167506E0,9.853090286E0
3.806087297E0,-5.827800184E-2,1.094145060E0,9.845903397E0
3.811137922E0,8.795999922E-3,1.115704536E0,9.850694656E0
3.816188495E0,-1.036799978E-2,1.108518004E0,9.833926201E0
3.821239068E0,-5.827800184E-2,1.096540451E0,9.795598030E0
3.826259745E0,-8.223299682E-2,1.120495558E0,9.771642685E0
3.831310318E0,-1.013970003E-1,1.110913515E0,9.769247055E0
3.836360943E0,-6.785999984E-2,1.098935962E0,9.745292664E0
3.841411516E0,-1.085835025E-1,1.089354038E0,9.740501404E0
3.846462089E0,-1.133745015E-1,1.063003540E0,9.726128578E0
3.851512714E0,-1.540980041E-1,1.027070999E0,9.714151382E0
3.856595318E0,-1.780530065E-1,9.935340285E-1,9.752478600E0
3.861645891E0,-1.876350045E-1,9.599969983E-1,9.723732948E0
3.866696464E0,-1.780530065E-1,9.504150152E-1,9.764456749E0
3.871747089E0,-1.469115019E-1,9.552059770E-1,9.762061119E0
3.876797714E0,-9.900149703E-2,9.767655134E-1,9.786016464E0
3.881848286E0,-1.061879992E-1,1.017488956E0,9.790806770E0
3.886889745E0,-1.277475059E-1,1.031862020E0,9.853090286E0
3.891940318E0,-1.540980041E-1,1.039048553E0,9.922559738E0
3.896990891E0,-1.445160061E-1,1.029466510E0,9.924955368E0
3.902041516E0,-1.445160061E-1,1.055817008E0,9.893813133E0
3.907092089E0,-9.900149703E-2,1.039048553E0,9.848299026E0
3.912142661E0,-3.911399841E-2,1.074980974E0,9.807575226E0
3.917196932E0,-5.576999858E-3,1.089354038E0,9.776433945E0
3.922247505E0,-3.911399841E-2,1.108518004E0,9.740501404E0
3.927298078E0,-4.390500113E-2,1.108518004E0,9.709360123E0
3.932348651E0,-1.276350021E-2,1.089354038E0,9.673427582E0
3.937399276E0,-6.546449661E-2,1.101331472E0,9.656659126E0
3.942449849E0,-4.150950164E-2,1.084563017E0,9.615935326E0
3.947495474E0,4.004999995E-3,1.067794442E0,9.556048393E0
3.952546099E0,-5.576999858E-3,1.101331472E0,9.575211525E0
3.957596672E0,-2.713650092E-2,1.139659524E0,9.596771240E0
3.962647245E0,-4.150950164E-2,1.108518004E0,9.637495041E0
3.967697870E0,-7.265099883E-2,1.091749549E0,9.623122215E0
3.972748443E0,-9.181500226E-2,1.063003540E0,9.666240692E0
3.977801359E0,-1.229564995E-1,1.029466510E0,9.620726585E0
3.982851932E0,-1.037925035E-1,1.027070999E0,9.615935326E0
3.987902557E0,-1.229564995E-1,1.012698054E0,9.654263496E0
3.992953130E0,-5.109149963E-2,1.077376485E0,9.668636322E0
3.998003755E0,-2.234550007E-2,1.106122494E0,9.709360123E0
4.003054328E0,-7.025550306E-2,1.122890949E0,9.788411140E0
4.008132505E0,-7.744199783E-2,1.163614511E0,9.774038315E0
4.013183078E0,-4.150950164E-2,1.180382967E0,9.814762115E0
4.018233703E0,-1.755449921E-2,1.177987456E0,9.838717461E0
4.023284276E0,-3.192749992E-2,1.120495558E0,9.843507767E0
4.028334901E0,-2.713650092E-2,1.070189953E0,9.781225204E0
4.033385474E0,-7.859999896E-4,1.053421497E0,9.829134941E0
4.038413911E0,-7.972500287E-3,1.036653042E0,9.812366486E0
4.043464536E0,-3.911399841E-2,1.036653042E0,9.790806770E0
4.048515109E0,-7.504650205E-2,1.053421497E0,9.795598030E0
4.053565682E0,-1.157699972E-1,1.048630476E0,9.750083923E0
4.058616307E0,-1.588889956E-1,1.041443944E0,9.730919838E0
4.063666880E0,-1.085835025E-1,1.031862020E0,9.726128578E0
4.068751932E0,-1.013970003E-1,1.012698054E0,9.699777603E0
4.073802661E0,-1.037925035E-1,1.019884467E0,9.697382927E0
4.078853443E0,-1.085835025E-1,9.935340285E-1,9.730919838E0
4.083904224E0,-7.025550306E-2,9.983249903E-1,9.766852379E0
4.088955005E0,-3.671849892E-2,1.012698054E0,9.809970856E0
4.094005734E0,2.077350020E-2,1.029466510E0,9.807575226E0
4.099030266E0,-1.036799978E-2,1.051025987E0,9.853090286E0
4.104081047E0,-1.515899971E-2,1.074980974E0,9.939328194E0
4.109131828E0,-5.576999858E-3,1.115704536E0,9.984842300E0
4.114182557E0,1.358699985E-2,1.144450545E0,1.000400639E1
4.119233339E0,3.275100142E-2,1.125286460E0,1.001837921E1
4.124284120E0,7.107900083E-2,1.096540451E0,1.003993893E1
4.129324276E0,6.400499959E-3,1.058212519E0,9.982446671E0
4.134375057E0,-3.432299942E-2,1.029466510E0,9.896208763E0
4.139425839E0,-1.013970003E-1,1.055817008E0,9.869858742E0
4.144476620E0,-1.445160061E-1,1.089354038E0,9.824343681E0
4.149527401E0,-1.708665043E-1,1.108518004E0,9.769247055E0
4.154578130E0,-1.876350045E-1,1.127681971E0,9.752478600E0
4.159626099E0,-1.828439981E-1,1.144450545E0,9.742897034E0
4.164676880E0,-1.109789982E-1,1.089354038E0,9.702173233E0
4.169727661E0,-5.348699912E-2,1.065399051E0,9.666240692E0
4.174778443E0,-6.546449661E-2,1.022279978E0,9.620726585E0
4.179829172E0,-5.588249862E-2,9.935340285E-1,9.611144066E0
4.184879953E0,-2.474099956E-2,1.022279978E0,9.572816849E0
4.189995057E0,-3.192749992E-2,1.046234965E0,9.620726585E0
4.195045839E0,-3.671849892E-2,1.094145060E0,9.642286301E0
4.200096568E0,-1.755449921E-2,1.139659524E0,9.663845062E0
4.205147349E0,6.400499959E-3,1.175591946E0,9.699777603E0
4.210198130E0,2.796000056E-2,1.180382967E0,9.723732948E0
4.215248911E0,3.993749991E-2,1.163614511E0,9.721337318E0
4.220238859E0,4.951950163E-2,1.197151542E0,9.783620834E0
4.225289641E0,6.389249861E-2,1.163614511E0,9.836321831E0
4.230340422E0,6.149699911E-2,1.122890949E0,9.867463112E0
4.235391151E0,2.796000056E-2,1.091749549E0,9.901000023E0
4.240441932E0,-3.192749992E-2,1.039048553E0,9.910581589E0
4.245492714E0,-9.660600126E-2,1.007907033E0,9.944119453E0
4.250548130E0,-1.469115019E-1,1.000720501E0,9.927350044E0
4.255598911E0,-1.588889956E-1,9.887430072E-1,9.910581589E0
4.260649641E0,-1.924259961E-1,9.647880197E-1,9.980051041E0
4.265700422E0,-2.235675007E-1,9.120870233E-1,9.972865105E0
4.270751255E0,-1.876350045E-1,8.905274868E-1,9.948909760E0
4.275801984E0,-1.301430017E-1,8.665724993E-1,9.941723824E0
4.280852141E0,-7.504650205E-2,8.450130224E-1,9.936932564E0
4.285902922E0,-1.013970003E-1,8.282445073E-1,9.932141304E0
4.290953651E0,-5.827800184E-2,8.785499930E-1,9.951305389E0
4.296004432E0,-3.911399841E-2,9.216690063E-1,9.936932564E0
4.301055214E0,-5.588249862E-2,9.719744921E-1,9.975260735E0
4.306105995E0,-7.504650205E-2,1.027070999E0,9.987237930E0
4.311172818E0,-5.827800184E-2,1.067794442E0,9.975260735E0
4.316223599E0,-7.972500287E-3,1.063003540E0,9.939328194E0
4.321274328E0,1.837800071E-2,1.036653042E0,9.848299026E0
4.326325109E0,8.795999922E-3,1.065399051E0,9.821948051E0
4.331375891E0,4.951950163E-2,1.063003540E0,9.790806770E0
4.336426672E0,3.514650092E-2,1.086958528E0,9.740501404E0
4.341449224E0,-1.276350021E-2,1.098935962E0,9.714151382E0
4.346500005E0,-3.192749992E-2,1.094145060E0,9.699777603E0
4.351550786E0,-2.713650092E-2,1.108518004E0,9.702173233E0
4.356601568E0,-7.972500287E-3,1.158823490E0,9.699777603E0
4.361652297E0,-1.515899971E-2,1.149241447E0,9.714151382E0
4.366703130E0,-2.234550007E-2,1.149241447E0,9.714151382E0
4.371769745E0,-3.432299942E-2,1.091749549E0,9.718941689E0
4.376820474E0,-3.911399841E-2,1.041443944E0,9.716546059E0
4.381871255E0,-6.546449661E-2,1.053421497E0,9.764456749E0
4.386922036E0,-8.941949904E-2,1.039048553E0,9.752478600E0
4.391972818E0,-8.702400327E-2,1.017488956E0,9.771642685E0
4.397023599E0,-1.109789982E-1,1.012698054E0,9.795598030E0
4.402074901E0,-8.462850004E-2,1.070189953E0,9.774038315E0
4.407125682E0,-5.109149963E-2,1.070189953E0,9.726128578E0
4.412176411E0,-4.630050063E-2,1.067794442E0,9.750083923E0
4.417227193E0,-3.911399841E-2,1.077376485E0,9.786016464E0
4.422277974E0,-2.953200042E-2,1.079771996E0,9.771642685E0
4.427328755E0,-1.995000057E-2,1.082167506E0,9.774038315E0
4.432383391E0,-3.181499895E-3,1.098935962E0,9.762061119E0
4.437434172E0,7.586999983E-2,1.077376485E0,9.771642685E0
4.442484901E0,8.545199782E-2,1.094145060E0,9.754874229E0
4.447535682E0,7.347449660E-2,1.144450545E0,9.754874229E0
4.452586464E0,5.431050062E-2,1.151636958E0,9.764456749E0
4.457637245E0,2.077350020E-2,1.142055035E0,9.781225204E0
4.462672661E0,-3.181499895E-3,1.163614511E0,9.778829575E0
4.467723443E0,2.796000056E-2,1.127681971E0,9.802784920E0
4.472774224E0,3.993749991E-2,1.084563017E0,9.819553375E0
4.477824953E0,3.993749991E-2,1.098935962E0,9.771642685E0
4.482875734E0,3.993749991E-2,1.043839455E0,9.786016464E0
4.487926516E0,-7.859999896E-4,1.022279978E0,9.793202400E0
4.492978599E0,-7.025550306E-2,9.839519858E-1,9.745292664E0
4.498029380E0,-1.421204954E-1,9.623925090E-1,9.790806770E0
4.503080161E0,-1.828439981E-1,9.911385179E-1,9.757269859E0
4.508130943E0,-1.900305003E-1,9.743700027E-1,9.771642685E0
4.513181672E0,-1.517024934E-1,9.791610241E-1,9.790806770E0
4.518232453E0,-8.702400327E-2,9.719744921E-1,9.740501404E0
4.523278911E0,-6.067350134E-2,1.015093446E0,9.769247055E0
4.528329693E0,-7.265099883E-2,1.017488956E0,9.774038315E0
4.533380474E0,-5.109149963E-2,1.024675488E0,9.752478600E0
4.538431255E0,-8.702400327E-2,1.053421497E0,9.747688293E0
4.543481984E0,-1.013970003E-1,1.077376485E0,9.704568863E0
4.548532766E0,-7.983750105E-2,1.091749549E0,9.666240692E0
4.553590266E0,-2.713650092E-2,1.086958528E0,9.654263496E0
4.558641047E0,1.358699985E-2,1.089354038E0,9.661450386E0
4.563691776E0,-7.859999896E-4,1.086958528E0,9.649472237E0
4.568742557E0,-3.181499895E-3,1.051025987E0,9.687800407E0
4.573793339E0,-5.576999858E-3,1.053421497E0,9.730919838E0
4.578844120E0,-2.234550007E-2,1.077376485E0,9.774038315E0
4.583903964E0,-1.515899971E-2,1.060608029E0,9.766852379E0
4.588954745E0,-3.181499895E-3,1.065399051E0,9.771642685E0
4.594005526E0,-1.995000057E-2,1.043839455E0,9.783620834E0
4.599056255E0,-5.588249862E-2,1.070189953E0,9.752478600E0
4.604107089E0,-6.306900084E-2,1.060608029E0,9.788411140E0
4.609157818E0,-1.205610037E-1,1.055817008E0,9.762061119E0
4.614188339E0,-1.373295039E-1,1.074980974E0,9.742897034E0
4.619239120E0,-1.684709936E-1,1.058212519E0,9.718941689E0
4.624289901E0,-1.684709936E-1,1.043839455E0,9.726128578E0
4.629340682E0,-1.445160061E-1,1.041443944E0,9.694987297E0
4.634391411E0,-5.827800184E-2,1.043839455E0,9.651867867E0
4.639442193E0,-3.432299942E-2,1.024675488E0,9.644681931E0
4.644494224E0,-7.859999896E-4,1.082167506E0,9.615935326E0
4.649545005E0,4.233299941E-2,1.134868503E0,9.584794044E0
4.654595734E0,5.191500112E-2,1.175591946E0,9.603958130E0
4.659646516E0,5.670600012E-2,1.197151542E0,9.613539696E0
4.664697297E0,9.263850003E-2,1.218711019E0,9.591980934E0
4.669748078E0,8.305650204E-2,1.206733465E0,9.599166870E0
4.674840526E0,9.024299681E-2,1.151636958E0,9.599166870E0
4.679891307E0,6.628800184E-2,1.142055035E0,9.644681931E0
4.684942089E0,-5.576999858E-3,1.106122494E0,9.659054756E0
4.689992818E0,-1.085835025E-1,1.079771996E0,9.730919838E0
4.695043599E0,-1.780530065E-1,1.046234965E0,9.786016464E0
4.700094380E0,-2.211720049E-1,1.053421497E0,9.877044678E0
4.705093703E0,-2.187764943E-1,1.048630476E0,9.994424820E0
4.710144484E0,-2.044035047E-1,1.053421497E0,1.000400639E1
4.715195266E0,-1.253519952E-1,1.063003540E0,9.989633560E0
4.720246047E0,-8.462850004E-2,1.041443944E0,9.977656364E0
4.725296828E0,-9.181500226E-2,1.046234965E0,9.927350044E0
4.730347557E0,-1.157699972E-1,1.072585464E0,9.860276222E0
4.735411359E0,-1.085835025E-1,1.101331472E0,9.802784920E0
4.740462141E0,-7.744199783E-2,1.137264013E0,9.764456749E0
4.745512870E0,-1.755449921E-2,1.125286460E0,9.694987297E0
4.750563703E0,5.191500112E-2,1.149241447E0,9.625517845E0
4.755614432E0,8.066099882E-2,1.189965010E0,9.560838699E0
4.760665214E0,1.094070002E-1,1.209128976E0,9.541674614E0
4.765707401E0,1.070114970E-1,1.218711019E0,9.491369247E0
4.770758182E0,8.066099882E-2,1.223502040E0,9.524906158E0
4.775808964E0,5.191500112E-2,1.221106529E0,9.534488678E0
4.780859745E0,4.472849891E-2,1.211524487E0,9.594375610E0
4.785887453E0,1.837800071E-2,1.199547052E0,9.673427582E0
4.790923807E0,1.609500032E-3,1.122890949E0,9.807575226E0
4.795974589E0,-4.390500113E-2,1.120495558E0,9.841112137E0
4.801061880E0,-1.037925035E-1,1.058212519E0,9.896208763E0
4.806112609E0,-1.612845063E-1,1.022279978E0,9.992029190E0
4.811166776E0,-2.091944963E-1,9.791610241E-1,1.001598358E1
4.816217505E0,-1.900305003E-1,9.791610241E-1,1.006149864E1
4.821239380E0,-1.948215067E-1,1.017488956E0,1.004712582E1
4.826290057E0,-1.828439981E-1,1.005511522E0,1.004712582E1
4.831378339E0,-9.660600126E-2,9.911385179E-1,1.005191612E1
4.836429120E0,-8.223299682E-2,1.017488956E0,1.008545303E1
4.841465578E0,-8.941949904E-2,1.053421497E0,9.994424820E0
4.846516255E0,-6.306900084E-2,1.094145060E0,9.956096649E0
4.851567036E0,-7.265099883E-2,1.144450545E0,9.855485916E0
4.856617818E0,-7.265099883E-2,1.125286460E0,9.786016464E0
4.861668547E0,-2.953200042E-2,1.139659524E0,9.733315468E0
4.866719380E0,-1.276350021E-2,1.139659524E0,9.685404778E0
4.871765943E0,1.119150035E-2,1.156427979E0,9.675823212E0
4.876816672E0,4.004999995E-3,1.142055035E0,9.587189674E0
4.881867453E0,1.598249935E-2,1.156427979E0,9.551257133E0
4.886887245E0,4.233299941E-2,1.192360520E0,9.563234329E0
4.891938026E0,2.316899970E-2,1.223502040E0,9.548861504E0
4.897017870E0,-1.515899971E-2,1.199547052E0,9.532093048E0
4.902037505E0,-6.785999984E-2,1.199547052E0,9.527301788E0
4.907088286E0,-1.037925035E-1,1.173196554E0,9.558443069E0
4.912169849E0,-1.013970003E-1,1.139659524E0,9.599166870E0
4.917203651E0,-7.983750105E-2,1.120495558E0,9.611144066E0
4.922254380E0,-7.744199783E-2,1.096540451E0,9.706964493E0
4.927305161E0,-8.702400327E-2,1.106122494E0,9.730919838E0
4.932355943E0,-5.109149963E-2,1.051025987E0,9.790806770E0
4.937406672E0,-4.869600013E-2,1.094145060E0,9.821948051E0
4.942457453E0,-1.515899971E-2,1.077376485E0,9.848299026E0
4.947508234E0,-6.067350134E-2,1.043839455E0,9.814762115E0
4.952577974E0,-1.253519952E-1,1.000720501E0,9.819553375E0
4.957628703E0,-1.445160061E-1,1.031862020E0,9.886627197E0
4.962679484E0,-1.684709936E-1,1.041443944E0,9.826739311E0
4.967730214E0,-1.588889956E-1,1.027070999E0,9.853090286E0
4.972780995E0,-1.205610037E-1,1.034257531E0,9.884231567E0
4.977831776E0,-6.067350134E-2,1.039048553E0,9.922559738E0
4.982882766E0,1.119150035E-2,1.091749549E0,9.953701019E0
4.987933495E0,-1.515899971E-2,1.063003540E0,9.996820450E0
4.992984276E0,-1.995000057E-2,1.041443944E0,9.989633560E0
4.998035057E0,-4.150950164E-2,1.072585464E0,9.992029190E0
5.003085839E0,-4.869600013E-2,1.077376485E0,9.953701019E0
5.008136620E0,-8.702400327E-2,1.091749549E0,9.932141304E0
5.013178703E0,-7.744199783E-2,1.072585464E0,9.920164108E0
5.018229484E0,-1.085835025E-1,1.098935962E0,9.903395653E0
5.023280266E0,-9.421049803E-2,1.063003540E0,9.872254372E0
5.028330995E0,-5.109149963E-2,1.055817008E0,9.862671852E0
5.033381776E0,8.795999922E-3,1.079771996E0,9.824343681E0
5.038432505E0,1.119150035E-2,1.084563017E0,9.745292664E0
5.043497870E0,-1.515899971E-2,1.103726983E0,9.709360123E0
5.048548651E0,-4.869600013E-2,1.122890949E0,9.702173233E0
5.053599432E0,-2.713650092E-2,1.146846056E0,9.649472237E0
5.058650214E0,1.598249935E-2,1.216315508E0,9.644681931E0
5.063700995E0,5.431050062E-2,1.233083963E0,9.678218842E0
5.068751776E0,7.826550305E-2,1.233083963E0,9.683009148E0
5.073796411E0,8.305650204E-2,1.211524487E0,9.608749390E0
5.078847193E0,8.784750104E-2,1.216315508E0,9.649472237E0
5.083897922E0,7.107900083E-2,1.230688453E0,9.654263496E0
5.088948703E0,5.670600012E-2,1.206733465E0,9.656659126E0
5.093999484E0,-1.755449921E-2,1.201942444E0,9.656659126E0
5.099050266E0,-4.630050063E-2,1.206733465E0,9.714151382E0
5.104101984E0,-4.390500113E-2,1.166010022E0,9.750083923E0
5.109152766E0,-1.755449921E-2,1.180382967E0,9.735710144E0
5.114203495E0,-1.515899971E-2,1.115704536E0,9.759665489E0
5.119254276E0,-3.911399841E-2,1.096540451E0,9.821948051E0
5.124305057E0,-2.474099956E-2,1.113309026E0,9.819553375E0
5.129355839E0,-3.671849892E-2,1.127681971E0,9.898604393E0
5.134411516E0,-3.192749992E-2,1.134868503E0,9.886627197E0
5.139462297E0,-2.953200042E-2,1.163614511E0,9.862671852E0
5.144513078E0,-1.755449921E-2,1.144450545E0,9.831530571E0
5.149563859E0,-1.515899971E-2,1.134868503E0,9.788411140E0
5.154614589E0,-3.671849892E-2,1.149241447E0,9.745292664E0
5.159665370E0,-9.421049803E-2,1.115704536E0,9.723732948E0
5.164713286E0,-1.325384974E-1,1.115704536E0,9.735710144E0
5.169764068E0,-1.540980041E-1,1.113309026E0,9.723732948E0
5.174814797E0,-1.660754979E-1,1.089354038E0,9.718941689E0
5.179865578E0,-1.540980041E-1,1.067794442E0,9.738105774E0
5.184916359E0,-1.469115019E-1,1.043839455E0,9.668636322E0
5.189967141E0,-1.469115019E-1,1.048630476E0,9.663845062E0
5.195019172E0,-1.636800021E-1,1.029466510E0,9.685404778E0
5.200069953E0,-1.564934999E-1,1.029466510E0,9.697382927E0
5.205120734E0,-2.091944963E-1,1.012698054E0,9.702173233E0
5.210171464E0,-1.780530065E-1,1.012698054E0,9.685404778E0
5.215222245E0,-1.660754979E-1,1.031862020E0,9.680614471E0
5.220273026E0,-1.301430017E-1,1.077376485E0,9.697382927E0
5.225322557E0,-7.983750105E-2,1.106122494E0,9.659054756E0
5.230373339E0,-7.983750105E-2,1.144450545E0,9.647076607E0
5.235424120E0,-4.869600013E-2,1.170801044E0,9.683009148E0
5.240474901E0,-3.671849892E-2,1.168405533E0,9.716546059E0
5.245525630E0,-4.150950164E-2,1.175591946E0,9.733315468E0
5.250576411E0,-9.421049803E-2,1.161219001E0,9.704568863E0
5.255622661E0,-1.013970003E-1,1.094145060E0,9.711755753E0
5.260673443E0,-1.421204954E-1,1.086958528E0,9.690196037E0
5.265724224E0,-1.517024934E-1,1.079771996E0,9.706964493E0
5.270775005E0,-1.972170025E-1,1.072585464E0,9.738105774E0
5.275825734E0,-1.900305003E-1,1.048630476E0,9.747688293E0
5.280876516E0,-1.564934999E-1,1.046234965E0,9.766852379E0
5.285935839E0,-1.493069977E-1,1.055817008E0,9.826739311E0
5.290986620E0,-1.013970003E-1,1.043839455E0,9.855485916E0
5.296037349E0,-4.630050063E-2,1.065399051E0,9.848299026E0
5.301088130E0,-6.306900084E-2,1.098935962E0,9.817157745E0
5.306138911E0,-1.229564995E-1,1.082167506E0,9.893813133E0
5.311189693E0,-1.445160061E-1,1.120495558E0,9.853090286E0
5.316236516E0,-1.325384974E-1,1.130077481E0,9.836321831E0
5.321287297E0,-7.025550306E-2,1.122890949E0,9.826739311E0
5.326338026E0,-5.827800184E-2,1.166010022E0,9.795598030E0
5.331388807E0,-5.109149963E-2,1.182778478E0,9.833926201E0
5.336439589E0,-7.972500287E-3,1.154032469E0,9.843507767E0
5.341490370E0,-7.972500287E-3,1.151636958E0,9.809970856E0
5.346532557E0,-1.995000057E-2,1.156427979E0,9.793202400E0
5.351583339E0,-1.515899971E-2,1.142055035E0,9.738105774E0
5.356634068E0,-2.474099956E-2,1.146846056E0,9.726128578E0
5.361684849E0,-4.869600013E-2,1.156427979E0,9.728524208E0
5.366735630E0,-2.713650092E-2,1.175591946E0,9.716546059E0
5.371786411E0,-3.911399841E-2,1.177987456E0,9.750083923E0
5.376867661E0,-3.192749992E-2,1.197151542E0,9.745292664E0
5.381918443E0,8.795999922E-3,1.170801044E0,9.783620834E0
5.386969224E0,-7.859999896E-4,1.175591946E0,9.783620834E0
5.392019953E0,4.004999995E-3,1.194756031E0,9.802784920E0
5.397070734E0,2.556449920E-2,1.166010022E0,9.824343681E0
5.402121516E0,2.316899970E-2,1.161219001E0,9.809970856E0
5.407136203E0,4.712399840E-2,1.175591946E0,9.841112137E0
5.412186932E0,6.389249861E-2,1.170801044E0,9.829134941E0
5.417237714E0,3.754200041E-2,1.201942444E0,9.819553375E0
5.422288495E0,3.754200041E-2,1.156427979E0,9.783620834E0
5.427339224E0,2.796000056E-2,1.194756031E0,9.742897034E0
5.432390005E0,4.233299941E-2,1.233083963E0,9.706964493E0
5.437446724E0,5.191500112E-2,1.228292942E0,9.687800407E0
5.442497505E0,6.868349761E-2,1.187569499E0,9.709360123E0
5.447548286E0,2.077350020E-2,1.223502040E0,9.692591667E0
5.452599068E0,4.951950163E-2,1.197151542E0,9.678218842E0
5.457649797E0,6.868349761E-2,1.180382967E0,9.730919838E0
5.462700630E0,4.712399840E-2,1.199547052E0,9.738105774E0
5.467748286E0,-5.576999858E-3,1.182778478E0,9.745292664E0
5.472799068E0,-3.192749992E-2,1.173196554E0,9.790806770E0
5.477849797E0,-5.109149963E-2,1.161219001E0,9.718941689E0
5.482900578E0,-8.462850004E-2,1.115704536E0,9.735710144E0
5.487951359E0,-6.785999984E-2,1.118100047E0,9.685404778E0
5.493002141E0,-5.348699912E-2,1.098935962E0,9.642286301E0
5.498057349E0,-8.223299682E-2,1.094145060E0,9.611144066E0
5.503108130E0,-7.025550306E-2,1.091749549E0,9.553652763E0
5.508158911E0,-9.421049803E-2,1.091749549E0,9.587189674E0
5.513209641E0,-9.660600126E-2,1.146846056E0,9.685404778E0
5.518260422E0,-9.181500226E-2,1.110913515E0,9.735710144E0
5.523311203E0,-1.157699972E-1,1.096540451E0,9.726128578E0
5.528368547E0,-1.373295039E-1,1.134868503E0,9.809970856E0
5.533419328E0,-1.253519952E-1,1.137264013E0,9.879440308E0
5.538470057E0,-1.277475059E-1,1.142055035E0,9.886627197E0
5.543520839E0,-1.277475059E-1,1.132472992E0,9.910581589E0
5.548571620E0,-1.373295039E-1,1.113309026E0,9.917768478E0
5.553622401E0,-1.373295039E-1,1.091749549E0,9.936932564E0
5.558700161E0,-1.636800021E-1,1.132472992E0,9.886627197E0
5.563750995E0,-1.708665043E-1,1.149241447E0,9.831530571E0
5.568801724E0,-1.684709936E-1,1.173196554E0,9.764456749E0
5.573852505E0,-1.708665043E-1,1.161219001E0,9.728524208E0
5.578903286E0,-1.756574959E-1,1.151636958E0,9.637495041E0
5.583954016E0,-1.564934999E-1,1.158823490E0,9.594375610E0
5.588977714E0,-1.181655005E-1,1.175591946E0,9.568025589E0
5.594028495E0,-5.348699912E-2,1.206733465E0,9.556048393E0
5.599079276E0,-3.671849892E-2,1.218711019E0,9.560838699E0
5.604130057E0,-2.234550007E-2,1.240270495E0,9.577607155E0
5.609180839E0,-3.432299942E-2,1.223502040E0,9.553652763E0
5.614231568E0,-4.150950164E-2,1.237874985E0,9.632703781E0
5.619273495E0,-6.546449661E-2,1.230688453E0,9.694987297E0
5.624324276E0,-4.630050063E-2,1.211524487E0,9.728524208E0
5.629375057E0,-3.192749992E-2,1.225897551E0,9.771642685E0
5.634425839E0,-2.713650092E-2,1.218711019E0,9.826739311E0
5.639476568E0,-5.348699912E-2,1.216315508E0,9.889022827E0
5.644527349E0,-5.348699912E-2,1.206733465E0,9.910581589E0
5.649580161E0,-5.588249862E-2,1.213919997E0,9.939328194E0
5.654630943E0,-1.037925035E-1,1.180382967E0,9.958492279E0
5.659681672E0,-1.277475059E-1,1.161219001E0,9.939328194E0
5.664732453E0,-1.445160061E-1,1.161219001E0,9.924955368E0
5.669783234E0,-1.445160061E-1,1.161219001E0,9.948909760E0
5.674834016E0,-1.445160061E-1,1.115704536E0,9.881835938E0
5.679891047E0,-1.277475059E-1,1.094145060E0,9.884231567E0
5.684941828E0,-1.493069977E-1,1.137264013E0,9.829134941E0
5.689992557E0,-1.181655005E-1,1.125286460E0,9.745292664E0
5.695043339E0,-1.037925035E-1,1.110913515E0,9.706964493E0
5.700094120E0,-9.421049803E-2,1.137264013E0,9.659054756E0
5.705144901E0,-4.390500113E-2,1.173196554E0,9.639890671E0
5.710186568E0,-3.432299942E-2,1.175591946E0,9.651867867E0
5.715237349E0,-4.630050063E-2,1.201942444E0,9.656659126E0
5.720288078E0,-2.234550007E-2,1.185173988E0,9.675823212E0
5.725338859E0,-7.025550306E-2,1.206733465E0,9.709360123E0
5.730389641E0,-9.421049803E-2,1.189965010E0,9.778829575E0
5.735440422E0,-1.469115019E-1,1.161219001E0,9.747688293E0
5.740498026E0,-1.900305003E-1,1.161219001E0,9.728524208E0
5.745548807E0,-1.996124983E-1,1.127681971E0,9.721337318E0
5.750599536E0,-2.475225031E-1,1.096540451E0,9.704568863E0
5.755650318E0,-2.475225031E-1,1.101331472E0,9.666240692E0
5.760701099E0,-2.594999969E-1,1.106122494E0,9.647076607E0
5.765751880E0,-2.139855027E-1,1.089354038E0,9.649472237E0
5.770787557E0,-2.571044862E-1,1.086958528E0,9.615935326E0
5.775838339E0,-2.283585072E-1,1.101331472E0,9.671031952E0
5.780889120E0,-1.852394938E-1,1.096540451E0,9.671031952E0
5.785939901E0,-1.684709936E-1,1.084563017E0,9.692591667E0
5.790990682E0,-1.397249997E-1,1.091749549E0,9.721337318E0
5.796041411E0,-1.133745015E-1,1.110913515E0,9.735710144E0
5.801117349E0,-1.013970003E-1,1.151636958E0,9.752478600E0
5.806168078E0,-1.061879992E-1,1.137264013E0,9.766852379E0
5.811218859E0,-1.181655005E-1,1.154032469E0,9.783620834E0
5.816269641E0,-1.301430017E-1,1.120495558E0,9.771642685E0
5.821320422E0,-1.540980041E-1,1.127681971E0,9.774038315E0
5.826371203E0,-1.517024934E-1,1.139659524E0,9.740501404E0
5.831392870E0,-1.924259961E-1,1.130077481E0,9.675823212E0
5.836443599E0,-2.044035047E-1,1.120495558E0,9.608749390E0
5.841494380E0,-2.307540029E-1,1.098935962E0,9.560838699E0
5.846545161E0,-2.571044862E-1,1.130077481E0,9.541674614E0
5.851595943E0,-2.834550142E-1,1.166010022E0,9.548861504E0
5.856646724E0,-2.882460058E-1,1.194756031E0,9.524906158E0
5.861692193E0,-2.906414866E-1,1.199547052E0,9.534488678E0
5.866742922E0,-2.738730013E-1,1.192360520E0,9.568025589E0
5.871793703E0,-2.642909884E-1,1.199547052E0,9.544070244E0
5.876844484E0,-2.403360009E-1,1.192360520E0,9.608749390E0
5.881895266E0,-2.115900069E-1,1.158823490E0,9.678218842E0
5.886946047E0,-2.044035047E-1,1.166010022E0,9.723732948E0
5.892015526E0,-1.636800021E-1,1.216315508E0,9.745292664E0
5.897066255E0,-1.588889956E-1,1.221106529E0,9.764456749E0
5.902117036E0,-1.301430017E-1,1.233083963E0,9.783620834E0
5.907167818E0,-1.349339932E-1,1.187569499E0,9.783620834E0
5.912218599E0,-1.061879992E-1,1.182778478E0,9.838717461E0
5.917269380E0,-1.133745015E-1,1.240270495E0,9.841112137E0
5.922306359E0,-7.983750105E-2,1.247457027E0,9.920164108E0
5.927357193E0,-5.348699912E-2,1.209128976E0,9.932141304E0
5.932407922E0,-5.109149963E-2,1.228292942E0,9.972865105E0
5.937458703E0,-8.223299682E-2,1.228292942E0,1.000640202E1
5.942509484E0,-9.900149703E-2,1.237874985E0,1.008545303E1
5.947560266E0,-1.684709936E-1,1.225897551E0,1.011659527E1
5.952611099E0,-2.187764943E-1,1.192360520E0,1.015731812E1
5.957661932E0,-2.571044862E-1,1.156427979E0,1.020043755E1
5.962712661E0,-2.714774907E-1,1.139659524E0,1.012138557E1
5.967763443E0,-2.571044862E-1,1.106122494E0,1.011659527E1
5.972814224E0,-2.858504951E-1,1.106122494E0,1.003993893E1
5.977865005E0,-2.906414866E-1,1.098935962E0,9.977656364E0
5.982929276E0,-2.954325080E-1,1.070189953E0,9.915372849E0
5.987980109E0,-3.002234995E-1,1.086958528E0,9.872254372E0
5.993030839E0,-2.738730013E-1,1.122890949E0,9.807575226E0
5.998081620E0,-2.547090054E-1,1.158823490E0,9.781225204E0
6.003132401E0,-2.379405051E-1,1.161219001E0,9.742897034E0
6.008183182E0,-1.804485023E-1,1.197151542E0,9.704568863E0
6.013211724E0,-1.780530065E-1,1.204337955E0,9.726128578E0
6.018262505E0,-1.588889956E-1,1.201942444E0,9.759665489E0
6.023313286E0,-1.469115019E-1,1.206733465E0,9.740501404E0
6.028364016E0,-1.828439981E-1,1.209128976E0,9.769247055E0
6.033414849E0,-1.924259961E-1,1.237874985E0,9.821948051E0
6.038465578E0,-2.020079941E-1,1.252248049E0,9.872254372E0
6.043518391E0,-2.499179989E-1,1.216315508E0,9.893813133E0
6.048569172E0,-2.594999969E-1,1.175591946E0,9.989633560E0
6.053619953E0,-2.451270074E-1,1.182778478E0,1.001358891E1
6.058670734E0,-1.924259961E-1,1.170801044E0,1.000400639E1
6.063721516E0,-1.996124983E-1,1.154032469E0,1.001837921E1
6.068772245E0,-2.163809985E-1,1.127681971E0,9.951305389E0
6.073830995E0,-2.163809985E-1,1.139659524E0,9.838717461E0
6.078881776E0,-1.900305003E-1,1.161219001E0,9.797993660E0
6.083932557E0,-2.163809985E-1,1.180382967E0,9.769247055E0
6.088983286E0,-2.211720049E-1,1.161219001E0,9.699777603E0
6.094034120E0,-2.331494987E-1,1.173196554E0,9.663845062E0
6.099084849E0,-2.307540029E-1,1.144450545E0,9.651867867E0
6.104132401E0,-2.139855027E-1,1.130077481E0,9.656659126E0
6.109183182E0,-1.804485023E-1,1.149241447E0,9.673427582E0
6.114233964E0,-1.684709936E-1,1.161219001E0,9.702173233E0
6.119284693E0,-1.588889956E-1,1.206733465E0,9.769247055E0
6.124335474E0,-1.732620001E-1,1.240270495E0,9.809970856E0
6.129386255E0,-2.020079941E-1,1.245061517E0,9.831530571E0
6.134454641E0,-2.235675007E-1,1.247457027E0,9.836321831E0
6.139505370E0,-2.571044862E-1,1.218711019E0,9.831530571E0
6.144556151E0,-2.642909884E-1,1.213919997E0,9.841112137E0
6.149606880E0,-2.786639929E-1,1.240270495E0,9.805179596E0
6.154657661E0,-3.193874955E-1,1.218711019E0,9.788411140E0
6.159708443E0,-3.864614964E-1,1.247457027E0,9.821948051E0
6.164737661E0,-3.553200066E-1,1.264225483E0,9.800389290E0
6.169788443E0,-3.409470022E-1,1.278598547E0,9.764456749E0
6.174839224E0,-3.265739977E-1,1.283389449E0,9.764456749E0
6.179889953E0,-3.217830062E-1,1.266620994E0,9.718941689E0
6.184940734E0,-2.882460058E-1,1.245061517E0,9.687800407E0
6.189991516E0,-2.618955076E-1,1.206733465E0,9.599166870E0
6.195045214E0,-2.499179989E-1,1.201942444E0,9.635099411E0
6.200095995E0,-2.235675007E-1,1.223502040E0,9.647076607E0
6.205146724E0,-1.996124983E-1,1.273807526E0,9.649472237E0
6.210197505E0,-1.349339932E-1,1.290575981E0,9.649472237E0
6.215248286E0,-1.037925035E-1,1.321717501E0,9.651867867E0
6.220299068E0,-1.397249997E-1,1.273807526E0,9.627913475E0
6.225352818E0,-1.900305003E-1,1.235479474E0,9.558443069E0
6.230403547E0,-2.571044862E-1,1.245061517E0,9.565629959E0
6.235454328E0,-2.642909884E-1,1.221106529E0,9.503347397E0
6.240505109E0,-2.906414866E-1,1.197151542E0,9.484183311E0
6.245555891E0,-2.906414866E-1,1.168405533E0,9.462623596E0
6.250606672E0,-3.720884919E-1,1.132472992E0,9.462623596E0
6.255657245E0,-3.984389901E-1,1.096540451E0,9.431482315E0
6.260707974E0,-4.271849990E-1,1.051025987E0,9.436272621E0
6.265758755E0,-4.295805097E-1,1.063003540E0,9.414713860E0
6.270809589E0,-4.367670119E-1,1.072585464E0,9.417108536E0
6.275860318E0,-4.343715012E-1,1.082167506E0,9.476996422E0
6.280911099E0,-4.008345008E-1,1.096540451E0,9.505742073E0
6.285968807E0,-4.152075052E-1,1.125286460E0,9.532093048E0
6.291019536E0,-4.559310079E-1,1.161219001E0,9.529697418E0
6.296070318E0,-4.367670119E-1,1.168405533E0,9.546465874E0
6.301121047E0,-3.936479986E-1,1.163614511E0,9.503347397E0
6.306171828E0,-3.241784871E-1,1.146846056E0,9.486578941E0
6.311222609E0,-3.241784871E-1,1.154032469E0,9.429086685E0
6.316259745E0,-2.211720049E-1,1.163614511E0,9.383571625E0
6.321310526E0,-1.445160061E-1,1.182778478E0,9.330870628E0
6.326361307E0,-1.397249997E-1,1.187569499E0,9.373990059E0
6.331412036E0,-1.301430017E-1,1.197151542E0,9.405131340E0
6.336462870E0,-1.756574959E-1,1.218711019E0,9.467414856E0
6.341513651E0,-1.229564995E-1,1.249852538E0,9.582398415E0
6.346575370E0,-9.421049803E-2,1.290575981E0,9.659054756E0
6.351626099E0,-3.671849892E-2,1.266620994E0,9.754874229E0
6.356676880E0,4.233299941E-2,1.295367002E0,9.910581589E0
6.361727609E0,8.784750104E-2,1.309739947E0,1.003754330E1
6.366778391E0,1.453395039E-1,1.362440944E0,1.020762444E1
6.371829172E0,1.477349997E-1,1.403164506E0,1.024834728E1
6.376873703E0,1.716900021E-1,1.453469992E0,1.035614491E1
6.381924432E0,1.908539981E-1,1.498984456E0,1.038968182E1
6.386975214E0,2.315775007E-1,1.546894550E0,1.040405464E1
6.392025995E0,1.908539981E-1,1.594804525E0,1.033937645E1
6.397076776E0,2.291820049E-1,1.625946045E0,1.026751137E1
6.402127557E0,2.387640029E-1,1.649901032E0,1.016929626E1
6.407183182E0,2.339729965E-1,1.678647041E0,1.002317047E1
6.412233911E0,2.196000069E-1,1.704997540E0,9.867463112E0
6.417284693E0,2.100179940E-1,1.740929961E0,9.690196037E0
6.422335474E0,2.531369925E-1,1.755303025E0,9.580002785E0
6.427386255E0,2.938604951E-1,1.767280459E0,9.491369247E0
6.432437036E0,3.273974955E-1,1.772071481E0,9.409922600E0
6.437479484E0,3.992624879E-1,1.812795043E0,9.371594429E0
6.442530214E0,4.447770119E-1,1.808004022E0,9.357221603E0
6.447580995E0,4.208219945E-1,1.791235447E0,9.385967255E0
6.452631828E0,4.447770119E-1,1.781653523E0,9.448250771E0
6.457682557E0,4.256129861E-1,1.791235447E0,9.505742073E0
6.462733339E0,3.753075004E-1,1.831959009E0,9.606353760E0
6.467798026E0,3.537479937E-1,1.867891550E0,9.666240692E0
6.472848755E0,3.441660106E-1,1.865496039E0,9.675823212E0
6.477899536E0,3.058379889E-1,1.877473474E0,9.721337318E0
6.482950266E0,3.273974955E-1,1.846331954E0,9.759665489E0
6.488001099E0,3.609344959E-1,1.860705018E0,9.709360123E0
6.493051880E0,3.848895133E-1,1.848727465E0,9.718941689E0
6.498079589E0,3.992624879E-1,1.870286942E0,9.675823212E0
6.503130370E0,3.944714963E-1,1.882264495E0,9.654263496E0
6.508181151E0,3.872849941E-1,1.877473474E0,9.642286301E0
6.513231880E0,3.777030110E-1,1.872682452E0,9.580002785E0
6.518282661E0,3.633300066E-1,1.906219482E0,9.500951767E0
6.523333443E0,3.800984919E-1,1.903823972E0,9.441063881E0
6.528388651E0,3.441660106E-1,1.882264495E0,9.388362885E0
6.533439432E0,2.842785120E-1,1.882264495E0,9.335661888E0
6.538490214E0,2.028315067E-1,1.853518486E0,9.268588066E0
6.543540943E0,7.347449660E-2,1.839145541E0,9.278169632E0
6.548591776E0,4.951950163E-2,1.808004022E0,9.285356522E0
6.553642505E0,-5.576999858E-3,1.817585945E0,9.347639084E0
6.558703391E0,-3.192749992E-2,1.805608511E0,9.412318230E0
6.563754120E0,-2.474099956E-2,1.812795043E0,9.455436707E0
6.568804901E0,-6.067350134E-2,1.831959009E0,9.534488678E0
6.573855682E0,-1.109789982E-1,1.803213000E0,9.568025589E0
6.578906464E0,-1.612845063E-1,1.793630958E0,9.565629959E0
6.583957245E0,-2.307540029E-1,1.791235447E0,9.548861504E0
6.589011568E0,-2.499179989E-1,1.786444545E0,9.486578941E0
6.594062297E0,-2.451270074E-1,1.848727465E0,9.405131340E0
6.599113078E0,-1.948215067E-1,1.872682452E0,9.378781319E0
6.604163859E0,-1.540980041E-1,1.906219482E0,9.256610870E0
6.609214641E0,-7.504650205E-2,1.932569981E0,9.139230728E0
6.614265422E0,-2.713650092E-2,1.982875466E0,9.017060280E0
6.619314276E0,-1.515899971E-2,2.040367603E0,8.978732109E0
6.624365005E0,4.233299941E-2,2.088277578E0,8.928426743E0
6.629415786E0,6.628800184E-2,2.126605511E0,8.890098572E0
6.634466568E0,1.333619952E-1,2.179306507E0,8.882912636E0
6.639517349E0,1.189889982E-1,2.210448027E0,8.868539810E0
6.644568130E0,1.237799972E-1,2.196074963E0,8.914053917E0
6.649611984E0,1.118025035E-1,2.186492920E0,8.921240807E0
6.654662766E0,8.784750104E-2,2.191283941E0,8.870935440E0
6.659713547E0,4.951950163E-2,2.124209881E0,8.825420380E0
6.664764276E0,1.609500032E-3,2.114628077E0,8.854166031E0
6.669815109E0,-7.859999896E-4,2.100255013E0,8.870935440E0
6.674865839E0,4.004999995E-3,2.095463991E0,8.933218002E0
6.679920005E0,-2.713650092E-2,2.119419098E0,9.036224365E0
6.684970734E0,-1.515899971E-2,2.124209881E0,9.177558899E0
6.690021516E0,-7.859999896E-4,2.121814489E0,9.278169632E0
6.695072297E0,2.077350020E-2,2.109837055E0,9.390758514E0
6.700123078E0,3.035550006E-2,2.126605511E0,9.493764877E0
6.705173859E0,7.586999983E-2,2.119419098E0,9.575211525E0
6.710220214E0,1.525260061E-1,2.114628077E0,9.647076607E0
6.715270995E0,2.267864943E-1,2.090672970E0,9.694987297E0
6.720321724E0,2.675099969E-1,2.066718102E0,9.685404778E0
6.725372505E0,3.273974955E-1,2.071508884E0,9.683009148E0
6.730423286E0,2.938604951E-1,2.100255013E0,9.687800407E0
6.735474016E0,2.866739929E-1,2.073904514E0,9.694987297E0
6.740515526E0,2.243909985E-1,2.064322472E0,9.644681931E0
6.745566255E0,1.980405003E-1,2.049949408E0,9.632703781E0
6.750617089E0,2.411594987E-1,2.071508884E0,9.560838699E0
6.755667818E0,2.267864943E-1,2.069113493E0,9.563234329E0
6.760718599E0,2.267864943E-1,2.035576582E0,9.479392052E0
6.765769380E0,2.770920098E-1,2.021203518E0,9.448250771E0
6.770820995E0,3.273974955E-1,2.061927080E0,9.419504166E0
6.775871724E0,3.777030110E-1,2.066718102E0,9.443459511E0
6.780922505E0,3.705165088E-1,2.071508884E0,9.572816849E0
6.785973286E0,4.088445008E-1,2.121814489E0,9.637495041E0
6.791024068E0,4.471724927E-1,2.172120094E0,9.685404778E0
6.796074849E0,4.399859905E-1,2.193679571E0,9.764456749E0
6.801122766E0,3.633300066E-1,2.234402895E0,9.850694656E0
6.806173495E0,3.202109933E-1,2.188888550E0,9.960887909E0
6.811224276E0,2.651144862E-1,2.169724464E0,1.004712582E1
6.816275057E0,2.363685071E-1,2.145769596E0,1.015492344E1
6.821325839E0,2.172044963E-1,2.069113493E0,1.025792980E1
6.826376620E0,1.716900021E-1,2.047554016E0,1.035854053E1
6.831427505E0,1.932494938E-1,2.064322472E0,1.049268818E1
6.836478286E0,1.716900021E-1,2.064322472E0,1.061006832E1
6.841529068E0,1.501304954E-1,2.021203518E0,1.066516495E1
6.846579797E0,1.285710037E-1,2.035576582E0,1.073223877E1
6.851630578E0,8.305650204E-2,2.028389931E0,1.072505188E1
6.856681359E0,3.754200041E-2,1.980479956E0,1.078254414E1
6.861717922E0,1.358699985E-2,1.973293543E0,1.081847668E1
6.866768651E0,8.795999922E-3,1.918197036E0,1.082805824E1
6.871819432E0,6.400499959E-3,1.867891550E0,1.083524513E1
6.876870214E0,2.556449920E-2,1.827167988E0,1.080410385E1
6.881920995E0,2.316899970E-2,1.798421979E0,1.077775288E1
6.886971724E0,3.993749991E-2,1.748116493E0,1.074182034E1
6.892031620E0,4.951950163E-2,1.752907515E0,1.069391060E1
6.897082401E0,9.982500225E-2,1.731348038E0,1.066516495E1
6.902133182E0,1.118025035E-1,1.721765995E0,1.069870186E1
6.907183911E0,1.237799972E-1,1.714579463E0,1.072026062E1
6.912234745E0,1.141979992E-1,1.697811007E0,1.070349216E1
6.917285474E0,1.285710037E-1,1.657087445E0,1.073702908E1
6.922333026E0,1.645034999E-1,1.673856020E0,1.078014851E1
6.927383703E0,2.004359961E-1,1.637923479E0,1.074661160E1
6.932434380E0,2.459505051E-1,1.621155024E0,1.067953777E1
6.937485057E0,1.884585023E-1,1.558871984E0,1.066516495E1
6.942535682E0,1.836674958E-1,1.525334954E0,1.061246395E1
6.947586359E0,1.908539981E-1,1.484611511E0,1.057653141E1
6.952630109E0,1.740854979E-1,1.501379967E0,1.061964989E1
6.957680786E0,1.836674958E-1,1.484611511E0,1.067714214E1
6.962731464E0,2.100179940E-1,1.458261013E0,1.071786594E1
6.967782089E0,1.668989956E-1,1.441492558E0,1.086159515E1
6.972832766E0,1.549215019E-1,1.427119493E0,1.094304276E1
6.977883443E0,1.141979992E-1,1.364836454E0,1.096699715E1
6.982941724E0,6.389249861E-2,1.245061517E0,1.100053406E1
6.987992401E0,6.149699911E-2,1.166010022E0,1.106760883E1
6.993043078E0,9.024299681E-2,1.091749549E0,1.112030983E1
6.998093703E0,9.503400326E-2,1.005511522E0,1.109875011E1
7.003144380E0,1.501304954E-1,9.887430072E-1,1.110833168E1
7.008195057E0,2.219955027E-1,1.048630476E0,1.110354137E1
7.013257974E0,2.267864943E-1,1.067794442E0,1.104125786E1
7.018308651E0,1.668989956E-1,1.089354038E0,1.099574375E1
7.023359328E0,1.285710037E-1,1.125286460E0,1.099813938E1
7.028410005E0,9.263850003E-2,1.173196554E0,1.090231895E1
7.033460682E0,6.149699911E-2,1.173196554E0,1.074421597E1
7.038511307E0,3.754200041E-2,1.168405533E0,1.054299355E1
7.043558078E0,1.598249935E-2,1.146846056E0,1.037530899E1
7.048608755E0,5.191500112E-2,1.139659524E0,1.018127346E1
7.053659432E0,5.910149962E-2,1.096540451E0,9.934536934E0
7.058710109E0,7.107900083E-2,1.024675488E0,9.776433945E0
7.063760786E0,7.826550305E-2,1.027070999E0,9.644681931E0
7.068811411E0,3.275100142E-2,1.005511522E0,9.568025589E0
7.073871203E0,6.400499959E-3,9.695789814E-1,9.527301788E0
7.078921880E0,7.107900083E-2,9.288554788E-1,9.594375610E0
7.083972557E0,1.764809936E-1,8.617814779E-1,9.750083923E0
7.089023182E0,2.483460009E-1,8.234534860E-1,1.003275204E1
7.094073859E0,3.345839977E-1,7.611705065E-1,1.032739925E1
7.099124536E0,4.016579986E-1,6.677460074E-1,1.060048580E1
7.104176047E0,4.447770119E-1,6.437910199E-1,1.083045387E1
7.109226724E0,4.256129861E-1,5.767170191E-1,1.107000446E1
7.114277401E0,4.471724927E-1,5.599485040E-1,1.121852493E1
7.119328078E0,4.136354923E-1,4.856880009E-1,1.129757690E1
7.124378755E0,2.866739929E-1,4.449644983E-1,1.132871819E1
7.129429380E0,2.052270025E-1,4.210095108E-1,1.126643467E1
7.134460995E0,1.094070002E-1,4.425689876E-1,1.116582394E1
7.139511620E0,-1.755449921E-2,5.335980058E-1,1.092866993E1
7.144562297E0,-1.037925035E-1,6.629549861E-1,1.059090424E1
7.149612974E0,-1.564934999E-1,7.947074771E-1,1.018366909E1
7.154663651E0,-2.618955076E-1,9.695789814E-1,9.747688293E0
7.159714328E0,-4.032300115E-1,1.024675488E0,9.443459511E0
7.164799745E0,-5.110275149E-1,1.079771996E0,9.069761276E0
7.169850422E0,-6.523619890E-1,1.199547052E0,8.743973732E0
7.174901047E0,-7.673460245E-1,1.271412015E0,8.437349319E0
7.179951724E0,-8.727480173E-1,1.352859020E0,8.183426857E0
7.185002401E0,-9.637770057E-1,1.443887949E0,8.034905434E0
7.190053078E0,-1.026059985E0,1.532521486E0,8.013345718E0
7.195078495E0,-1.052410483E0,1.597200036E0,7.996577263E0
7.200129120E0,-1.038037539E0,1.709788442E0,8.085210800E0
7.205179797E0,-1.030851007E0,1.810399532E0,8.209776878E0
7.210230474E0,-9.589859843E-1,1.829563498E0,8.317574501E0
7.215281151E0,-8.631659746E-1,1.841541052E0,8.446931839E0
7.220331828E0,-7.913010120E-1,1.829563498E0,8.559519768E0
7.225396255E0,-7.170404792E-1,1.769675970E0,8.566706657E0
7.230446880E0,-6.547574997E-1,1.728952527E0,8.561915398E0
7.235497557E0,-6.355934739E-1,1.738534451E0,8.528378487E0
7.240548234E0,-6.331980228E-1,1.767280459E0,8.494841576E0
7.245598859E0,-6.499664783E-1,1.772071481E0,8.494841576E0
7.250649536E0,-6.882944703E-1,1.781653523E0,8.518796921E0
7.255703339E0,-7.194359899E-1,1.740929961E0,8.569102287E0
7.260754016E0,-7.409955263E-1,1.688228965E0,8.645757675E0
7.265804693E0,-7.745324969E-1,1.635527968E0,8.796674728E0
7.270855370E0,-8.176515102E-1,1.566058517E0,8.942799568E0
7.275905995E0,-7.865099907E-1,1.494193554E0,9.074552536E0
7.280956672E0,-7.984874845E-1,1.451074481E0,9.184745789E0
7.286011984E0,-8.080695271E-1,1.451074481E0,9.314102173E0
7.291062661E0,-8.080695271E-1,1.451074481E0,9.421899796E0
7.296113339E0,-7.889055014E-1,1.513357520E0,9.488973618E0
7.301164016E0,-7.481819987E-1,1.551685452E0,9.474600792E0
7.306214641E0,-6.882944703E-1,1.604386449E0,9.397945404E0
7.311265318E0,-6.355934739E-1,1.666669488E0,9.292543411E0
7.316323495E0,-5.804970264E-1,1.805608511E0,9.096112251E0
7.321374172E0,-5.301914811E-1,1.872682452E0,8.914053917E0
7.326424849E0,-4.607219994E-1,1.930174470E0,8.619407654E0
7.331475526E0,-4.655129910E-1,1.987666488E0,8.346320152E0
7.336526151E0,-4.559310079E-1,2.049949408E0,8.159471512E0
7.341576828E0,-4.199984968E-1,2.136187553E0,8.003764153E0
7.346622297E0,-4.271849990E-1,2.212843418E0,7.864824772E0
7.351672974E0,-4.056254923E-1,2.315850019E0,7.771400452E0
7.356723599E0,-4.271849990E-1,2.380528450E0,7.675580502E0
7.361774328E0,-4.295805097E-1,2.421252012E0,7.651625633E0
7.366824953E0,-4.199984968E-1,2.411669970E0,7.701931000E0
7.371875630E0,-4.295805097E-1,2.428438425E0,7.773796082E0
7.376911359E0,-4.032300115E-1,2.387715101E0,7.900757313E0
7.381961984E0,-4.295805097E-1,2.351782560E0,8.094793320E0
7.387012661E0,-5.182139874E-1,2.335014105E0,8.296014786E0
7.392063339E0,-5.876834989E-1,2.313454390E0,8.552333832E0
7.397113964E0,-6.116384864E-1,2.275126457E0,8.775115013E0
7.402164641E0,-6.260114908E-1,2.279917479E0,8.954777718E0
7.407213234E0,-6.906899810E-1,2.239193916E0,9.163186073E0
7.412263911E0,-6.978765130E-1,2.208052397E0,9.326080322E0
7.417314589E0,-6.811079979E-1,2.196074963E0,9.474600792E0
7.422365266E0,-6.475710273E-1,2.205657005E0,9.546465874E0
7.427415891E0,-6.164295077E-1,2.196074963E0,9.623122215E0
7.432466620E0,-5.733104944E-1,2.203261614E0,9.632703781E0
7.437504953E0,-5.277959704E-1,2.253566980E0,9.548861504E0
7.442555630E0,-4.918634892E-1,2.323036432E0,9.402735710E0
7.447606307E0,-4.774905145E-1,2.397296906E0,9.215887070E0
7.452656984E0,-4.607219994E-1,2.454788923E0,8.957173347E0
7.457707609E0,-4.487445056E-1,2.502698898E0,8.698458672E0
7.462758286E0,-4.463489950E-1,2.514676571E0,8.521191597E0
7.467810682E0,-4.487445056E-1,2.536236048E0,8.449327469E0
7.472861359E0,-4.367670119E-1,2.507489920E0,8.384648323E0
7.477912036E0,-4.319759905E-1,2.512280941E0,8.456513405E0
7.482962714E0,-4.367670119E-1,2.505094528E0,8.564311028E0
7.488013339E0,-4.463489950E-1,2.481139421E0,8.739182472E0
7.493064016E0,-4.415580034E-1,2.497908115E0,8.966754913E0
7.498117766E0,-4.559310079E-1,2.483535051E0,9.167977333E0
7.503168443E0,-4.870724976E-1,2.418856382E0,9.441063881E0
7.508219120E0,-5.493555069E-1,2.378133059E0,9.611144066E0
7.513269797E0,-5.828924775E-1,2.313454390E0,9.742897034E0
7.518320422E0,-6.355934739E-1,2.291894913E0,9.821948051E0
7.523371099E0,-6.667349935E-1,2.258358002E0,9.862671852E0
7.528421411E0,-6.523619890E-1,2.279917479E0,9.934536934E0
7.533472089E0,-5.996609926E-1,2.282313108E0,9.869858742E0
7.538522766E0,-5.517510176E-1,2.318245411E0,9.874649048E0
7.543573443E0,-5.613330007E-1,2.361364603E0,9.857880592E0
7.548624120E0,-5.613330007E-1,2.394901514E0,9.819553375E0
7.553674745E0,-5.254005194E-1,2.426043034E0,9.728524208E0
7.558709484E0,-5.301914811E-1,2.469161987E0,9.639890671E0
7.563760109E0,-5.086320043E-1,2.435625076E0,9.587189674E0
7.568810786E0,-4.607219994E-1,2.452393532E0,9.587189674E0
7.573861464E0,-4.128119946E-1,2.449997902E0,9.572816849E0
7.578912141E0,-4.343715012E-1,2.397296906E0,9.642286301E0
7.583962818E0,-4.463489950E-1,2.346991539E0,9.764456749E0
7.589016099E0,-5.038409829E-1,2.246380568E0,9.884231567E0
7.594066724E0,-5.373780131E-1,2.152956009E0,1.005670738E1
7.599117401E0,-6.164295077E-1,2.100255013E0,1.032260799E1
7.604168078E0,-6.547574997E-1,2.049949408E0,1.056934452E1
7.609218703E0,-7.170404792E-1,2.052345037E0,1.083045387E1
7.614269432E0,-7.793235183E-1,1.954129457E0,1.117061520E1
7.619332505E0,-8.272334933E-1,1.896637559E0,1.154191780E1
7.624383182E0,-8.296290040E-1,1.808004022E0,1.183177280E1
7.629433859E0,-7.984874845E-1,1.740929961E0,1.209767342E1
7.634484536E0,-7.505775094E-1,1.716974974E0,1.227973175E1
7.639535214E0,-7.386000156E-1,1.733743548E0,1.237315559E1
7.644585839E0,-7.386000156E-1,1.784049034E0,1.225577641E1
7.649626932E0,-7.170404792E-1,1.819981456E0,1.194436169E1
7.654677557E0,-7.002720237E-1,1.903823972E0,1.158743191E1
7.659728234E0,-6.020565033E-1,1.970898032E0,1.119936085E1
7.664778911E0,-4.966545105E-1,1.997248530E0,1.085440922E1
7.669829536E0,-4.463489950E-1,1.966107011E0,1.061964989E1
7.674880214E0,-3.888570070E-1,1.918197036E0,1.045675564E1
7.679940422E0,-2.930369973E-1,1.870286942E0,1.028188419E1
7.684991099E0,-3.026190102E-1,1.798421979E0,1.021720600E1
7.690041776E0,-2.858504951E-1,1.743325472E0,1.024595165E1
7.695092453E0,-2.954325080E-1,1.697811007E0,1.039207745E1
7.700143078E0,-2.810595036E-1,1.635527968E0,1.058850861E1
7.705193755E0,-2.571044862E-1,1.554080963E0,1.083284950E1
7.710238130E0,-2.187764943E-1,1.448678970E0,1.108677292E1
7.715288807E0,-1.205610037E-1,1.384000540E0,1.131434536E1
7.720339432E0,-4.630050063E-2,1.357650042E0,1.139339638E1
7.725390109E0,-3.181499895E-3,1.355254531E0,1.147963428E1
7.730440786E0,8.545199782E-2,1.381605029E0,1.157545471E1
7.735491464E0,2.076224983E-1,1.472633958E0,1.159701443E1
7.740554380E0,2.818830013E-1,1.587617993E0,1.148442554E1
7.745605057E0,4.351949990E-1,1.693019986E0,1.133829975E1
7.750655734E0,6.268349886E-1,1.762489557E0,1.118019676E1
7.755706411E0,8.424299955E-1,1.800817490E0,1.101969814E1
7.760757089E0,9.813690186E-1,1.841541052E0,1.094543839E1
7.765807714E0,1.108330488E0,1.781653523E0,1.094543839E1
7.770858078E0,1.194568515E0,1.690624475E0,1.101251221E1
7.775908755E0,1.249665022E0,1.637923479E0,1.117780113E1
7.780959432E0,1.276015520E0,1.563663006E0,1.132392693E1
7.786010109E0,1.331112027E0,1.467843056E0,1.152993965E1
7.791060786E0,1.302366018E0,1.367231965E0,1.178386307E1
7.796111464E0,1.218523502E0,1.283389449E0,1.205694962E1
7.801152297E0,1.122703552E0,1.154032469E0,1.232764149E1
7.806202974E0,1.070002556E0,1.029466510E0,1.261510181E1
7.811253651E0,1.010115027E0,9.192734957E-1,1.277799511E1
7.816304328E0,8.807579875E-1,8.018940091E-1,1.278757763E1
7.821354953E0,7.514010072E-1,6.845145226E-1,1.270373535E1
7.826405630E0,5.813205242E-1,5.815079808E-1,1.251688576E1
7.831475526E0,4.615454972E-1,5.551574826E-1,1.225098515E1
7.836526203E0,3.920759857E-1,5.431799889E-1,1.183416843E1
7.841576828E0,4.064489901E-1,5.862990022E-1,1.139818764E1
7.846627505E0,4.136354923E-1,6.461864710E-1,1.099813938E1
7.851678182E0,4.399859905E-1,7.324244976E-1,1.064839554E1
7.856728859E0,5.022690296E-1,8.474084735E-1,1.033218956E1
7.861759328E0,5.885069966E-1,9.528105259E-1,9.996820450E0
7.866810005E0,6.388124824E-1,1.091749549E0,9.747688293E0
7.871860682E0,6.675584912E-1,1.187569499E0,9.476996422E0
7.876911359E0,6.675584912E-1,1.218711019E0,9.268588066E0
7.881961984E0,6.172530055E-1,1.237874985E0,9.074552536E0
7.887012661E0,5.501790047E-1,1.187569499E0,8.949986458E0
7.892062714E0,4.327994883E-1,1.149241447E0,8.899681091E0
7.897113391E0,1.932494938E-1,1.125286460E0,8.952382088E0
7.902164016E0,-1.515899971E-2,1.055817008E0,9.048201561E0
7.907214693E0,-1.085835025E-1,9.863474965E-1,9.251819611E0
7.912265370E0,-2.139855027E-1,9.408329725E-1,9.500951767E0
7.917316047E0,-2.451270074E-1,8.809455037E-1,9.694987297E0
7.922359641E0,-2.906414866E-1,8.426175117E-1,9.793202400E0
7.927410318E0,-3.145965040E-1,7.875210047E-1,9.850694656E0
7.932460995E0,-3.385514915E-1,6.629549861E-1,9.793202400E0
7.937511620E0,-3.960435092E-1,6.126495004E-1,9.683009148E0
7.942562297E0,-4.607219994E-1,6.222314835E-1,9.551257133E0
7.947612870E0,-5.301914811E-1,6.653504968E-1,9.414713860E0
7.952668807E0,-5.613330007E-1,7.132604718E-1,9.280565262E0
7.957719432E0,-5.804970264E-1,8.138715029E-1,9.163186073E0
7.962770057E0,-5.158184767E-1,9.216690063E-1,9.005083084E0
7.967820734E0,-4.846769869E-1,1.005511522E0,8.858957291E0
7.972871359E0,-4.463489950E-1,1.034257531E0,8.767928123E0
7.977921984E0,-4.176029861E-1,1.077376485E0,8.667317390E0
7.982971047E0,-3.864614964E-1,1.101331472E0,8.547542572E0
7.988021672E0,-2.930369973E-1,1.142055035E0,8.413394928E0
7.993072349E0,-3.074100018E-1,1.139659524E0,8.269664764E0
7.998122974E0,-2.786639929E-1,1.134868503E0,8.157075882E0
8.003173651E0,-2.954325080E-1,1.115704536E0,7.963040352E0
8.008224276E0,-3.649019897E-1,1.096540451E0,7.792960167E0
8.013271359E0,-4.415580034E-1,1.072585464E0,7.639647961E0
8.018321984E0,-5.469599962E-1,1.055817008E0,7.481544971E0
8.023372661E0,-6.331980228E-1,1.024675488E0,7.361770153E0
8.028423339E0,-7.457864881E-1,1.043839455E0,7.282718658E0
8.033473964E0,-7.960919738E-1,1.082167506E0,7.263554573E0
8.038524589E0,-8.032785058E-1,1.142055035E0,7.299487114E0
8.043581724E0,-8.296290040E-1,1.216315508E0,7.304277897E0
8.048632349E0,-8.583750129E-1,1.333695054E0,7.354583263E0
8.053683026E0,-8.248379827E-1,1.362440944E0,7.409679890E0
8.058733651E0,-7.673460245E-1,1.458261013E0,7.380933762E0
8.063784328E0,-7.122495174E-1,1.494193554E0,7.359374523E0
8.068834953E0,-6.355934739E-1,1.534916997E0,7.321046352E0
8.073879432E0,-5.589374900E-1,1.618759513E0,7.239599705E0
8.078930057E0,-3.601109982E-1,1.733743548E0,7.136592865E0
8.083980734E0,-1.564934999E-1,1.798421979E0,7.059937000E0
8.089031411E0,2.556449920E-2,1.882264495E0,6.964117050E0
8.094082036E0,1.788765043E-1,1.999644041E0,6.916206837E0
8.099132714E0,2.890695035E-1,2.133791924E0,6.827573299E0
8.104185734E0,3.441660106E-1,2.217634439E0,6.762895107E0
8.109236359E0,3.393749893E-1,2.294290543E0,6.770081520E0
8.114286984E0,3.058379889E-1,2.361364603E0,6.762895107E0
8.119337661E0,2.890695035E-1,2.390110493E0,6.765290737E0
8.124388286E0,2.603234947E-1,2.423647404E0,6.844342232E0
8.129438911E0,2.459505051E-1,2.483535051E0,6.920998096E0
8.134500422E0,1.932494938E-1,2.526654005E0,7.014422417E0
8.139551047E0,1.573169976E-1,2.536236048E0,7.155756950E0
8.144601672E0,8.784750104E-2,2.557795525E0,7.258763313E0
8.149652349E0,3.275100142E-2,2.581750393E0,7.352188110E0
8.154702974E0,1.598249935E-2,2.648824453E0,7.486336231E0
8.159753651E0,2.316899970E-2,2.672779560E0,7.651625633E0
8.164793964E0,4.233299941E-2,2.723084927E0,7.735467911E0
8.169844589E0,6.389249861E-2,2.761413097E0,7.900757313E0
8.174895214E0,1.405484974E-1,2.792554617E0,8.104374886E0
8.179945839E0,2.100179940E-1,2.823695898E0,8.252896309E0
8.184996516E0,2.794874907E-1,2.857233047E0,8.396626472E0
8.190047193E0,3.273974955E-1,2.897956610E0,8.581079483E0
8.195100474E0,4.280084968E-1,2.960239410E0,8.758346558E0
8.200151151E0,5.094555020E-1,2.960239410E0,8.854166031E0
8.205201776E0,5.741339922E-1,2.926702499E0,8.966754913E0
8.210252401E0,6.364169717E-1,2.988985538E0,9.103298187E0
8.215303078E0,6.603720188E-1,2.929097891E0,9.124857903E0
8.220353703E0,6.364169717E-1,2.933888912E0,9.148813248E0
8.225403391E0,6.507899761E-1,2.996171951E0,9.175163269E0
8.230454068E0,7.346324921E-1,3.063246012E0,9.177558899E0
8.235504693E0,8.496165276E-1,3.156670570E0,9.242237091E0
8.240555318E0,9.909510016E-1,3.214162588E0,9.275774956E0
8.245605995E0,1.108330488E0,3.178230047E0,9.338057518E0
8.250656620E0,1.163426995E0,3.127924442E0,9.426691055E0
8.255782661E0,1.218523502E0,3.130320072E0,9.486578941E0
8.260833339E0,1.237687469E0,3.096782923E0,9.639890671E0
8.265883964E0,1.228105545E0,3.005753994E0,9.771642685E0
8.270934641E0,1.153844953E0,2.878792524E0,9.893813133E0
8.275985266E0,1.050838470E0,2.792554617E0,1.010461712E1
8.281035891E0,9.382500052E-1,2.665592909E0,1.025792980E1
8.286007766E0,7.394235134E-1,2.517071962E0,1.056215763E1
8.291058391E0,5.956935287E-1,2.375737429E0,1.085201359E1
8.296109016E0,3.848895133E-1,2.196074963E0,1.111551857E1
8.301159641E0,1.573169976E-1,2.023598909E0,1.145807457E1
8.306210318E0,1.837800071E-2,1.896637559E0,1.184614563E1
8.311260995E0,-1.660754979E-1,1.772071481E0,1.228931332E1
8.316307505E0,-3.265739977E-1,1.633132458E0,1.272289944E1
8.321358130E0,-4.128119946E-1,1.477424979E0,1.317085743E1
8.326408755E0,-4.295805097E-1,1.352859020E0,1.345831776E1
8.331459380E0,-4.870724976E-1,1.249852538E0,1.364756203E1
8.336510057E0,-5.134230256E-1,1.156427979E0,1.376254559E1
8.341560734E0,-5.685194731E-1,1.101331472E0,1.361881638E1
8.346617714E0,-6.092429757E-1,1.106122494E0,1.331937885E1
8.351668339E0,-6.403844953E-1,1.144450545E0,1.284027863E1
8.356718964E0,-7.457864881E-1,1.230688453E0,1.212881470E1
8.361769589E0,-8.487930298E-1,1.319321990E0,1.134309101E1
8.366820266E0,-9.637770057E-1,1.434306026E0,1.065318680E1
8.371870891E0,-1.018873453E0,1.467843056E0,1.006389427E1
8.376926203E0,-1.011687040E0,1.544499040E0,9.508137703E0
8.381976828E0,-1.030851007E0,1.606781960E0,9.187141418E0
8.387027505E0,-1.088343024E0,1.645110011E0,9.045806885E0
8.392078182E0,-1.121880054E0,1.731348038E0,9.141626358E0
8.397128807E0,-1.105111480E0,1.808004022E0,9.335661888E0
8.402179432E0,-1.081156492E0,1.827167988E0,9.690196037E0
8.407232609E0,-1.047619462E0,1.824772477E0,1.010222244E1
8.412283286E0,-1.054805994E0,1.733743548E0,1.046154690E1
8.417333911E0,-1.014082551E0,1.592409015E0,1.065318680E1
8.422384536E0,-1.059597015E0,1.479820490E0,1.065797806E1
8.427435214E0,-1.153021455E0,1.345672488E0,1.062204552E1
8.432485839E0,-1.227282047E0,1.204337955E0,1.051424789E1
8.437556464E0,-1.224886537E0,1.096540451E0,1.035135365E1
8.442607089E0,-1.160207987E0,9.695789814E-1,1.027469826E1
8.447657714E0,-1.073969960E0,8.617814779E-1,1.023397446E1
8.452708391E0,-9.446129799E-1,7.994984984E-1,1.026990700E1
8.457759016E0,-8.080695271E-1,7.899165154E-1,1.040884590E1
8.462809693E0,-6.739215255E-1,7.611705065E-1,1.063881397E1
8.467843859E0,-6.212205291E-1,7.803344727E-1,1.092866993E1
8.472894484E0,-6.092429757E-1,6.988875270E-1,1.127841282E1
8.477945109E0,-6.331980228E-1,5.216205120E-1,1.162576008E1
8.482995786E0,-6.523619890E-1,3.635174930E-1,1.198029423E1
8.488046411E0,-6.763169765E-1,2.126010060E-1,1.232764149E1
8.493097089E0,-6.523619890E-1,4.491600022E-2,1.266061592E1
8.498133026E0,-6.858990192E-1,-9.162750095E-2,1.289297962E1
8.503183651E0,-7.457864881E-1,-1.946340054E-1,1.305108261E1
8.508234328E0,-7.793235183E-1,-2.545214891E-1,1.307503796E1
8.513284953E0,-8.463975191E-1,-2.593125105E-1,1.300077724E1
8.518335630E0,-8.967030048E-1,-1.850520074E-1,1.278039074E1
8.523386255E0,-9.254490137E-1,-2.215800062E-2,1.236357403E1
8.528474849E0,-9.110760093E-1,1.622955054E-1,1.175032616E1
8.533525526E0,-8.847255111E-1,3.850769997E-1,1.107000446E1
8.538576151E0,-7.936965227E-1,5.839034915E-1,1.035614491E1
8.543626776E0,-7.457864881E-1,7.755435109E-1,9.778829575E0
8.548677453E0,-6.355934739E-1,9.480195045E-1,9.196722984E0
8.553728078E0,-5.086320043E-1,1.118100047E0,8.684085846E0
8.558766984E0,-4.535354972E-1,1.297762513E0,8.238522530E0
8.563817661E0,-3.912524879E-1,1.475029469E0,7.898362160E0
8.568868286E0,-3.625065088E-1,1.635527968E0,7.622879505E0
8.573918911E0,-2.954325080E-1,1.786444545E0,7.426448345E0
8.578969589E0,-1.996124983E-1,1.906219482E0,7.347396851E0
8.584020214E0,-8.462850004E-2,1.966107011E0,7.318651199E0
8.589068964E0,5.191500112E-2,1.954129457E0,7.321046352E0
8.594119641E0,2.219955027E-1,1.913406014E0,7.364165306E0
8.599170266E0,3.393749893E-1,1.834354520E0,7.565387726E0
8.604220891E0,4.112400115E-1,1.760094047E0,7.816915035E0
8.609271568E0,4.280084968E-1,1.693019986E0,8.111561775E0
8.614322193E0,3.705165088E-1,1.640318990E0,8.430163383E0
8.619384849E0,2.890695035E-1,1.657087445E0,8.746369362E0
8.624435526E0,2.076224983E-1,1.599595547E0,8.880517006E0
8.629486151E0,1.357575059E-1,1.561267495E0,8.959568024E0
8.634536828E0,6.868349761E-2,1.455865502E0,9.100902557E0
8.639587453E0,-1.515899971E-2,1.319321990E0,9.141626358E0
8.644638078E0,8.795999922E-3,1.213919997E0,9.259005547E0
8.649649432E0,-3.181499895E-3,1.137264013E0,9.345244408E0
8.654700057E0,4.712399840E-2,1.146846056E0,9.421899796E0
8.659750682E0,1.597124934E-1,1.127681971E0,9.500951767E0
8.664801359E0,2.315775007E-1,1.106122494E0,9.448250771E0
8.669852036E0,2.866739929E-1,1.154032469E0,9.397945404E0
8.674902661E0,3.753075004E-1,1.161219001E0,9.270983696E0
8.679954953E0,4.711275101E-1,1.173196554E0,9.151208878E0
8.685005578E0,5.597609878E-1,1.261829972E0,8.990710258E0
8.690056203E0,6.052755117E-1,1.324113011E0,8.837397575E0
8.695106880E0,6.292304993E-1,1.441492558E0,8.669713020E0
8.700157557E0,6.076710224E-1,1.530125976E0,8.581079483E0
8.705208182E0,5.693429708E-1,1.580431461E0,8.525982857E0
8.710290734E0,5.286195278E-1,1.664273977E0,8.530774117E0
8.715341359E0,4.759185016E-1,1.772071481E0,8.521191597E0
8.720392036E0,4.519635141E-1,1.817585945E0,8.564311028E0
8.725442661E0,4.112400115E-1,1.846331954E0,8.631384850E0
8.730493286E0,3.561435044E-1,1.860705018E0,8.681690216E0
8.735543964E0,2.818830013E-1,1.843936443E0,8.660131454E0
8.740581099E0,2.076224983E-1,1.757698536E0,8.664921761E0
8.745631776E0,5.191500112E-2,1.764884949E0,8.650548935E0
8.750682401E0,-1.253519952E-1,1.784049034E0,8.583475113E0
8.755733026E0,-2.810595036E-1,1.812795043E0,8.492445946E0
8.760783703E0,-4.080210030E-1,1.894242048E0,8.367879868E0
8.765834328E0,-5.062364936E-1,1.961315989E0,8.303201675E0
8.770872818E0,-5.469599962E-1,2.028389931E0,8.238522530E0
8.775923495E0,-5.852879882E-1,2.083486557E0,8.149889946E0
8.780974120E0,-6.140339971E-1,2.172120094E0,8.073233604E0
8.786024797E0,-6.284070015E-1,2.193679571E0,8.070837975E0
8.791075422E0,-6.140339971E-1,2.243984938E0,8.073233604E0
8.796126047E0,-5.757060051E-1,2.284708500E0,8.181031227E0
8.801183964E0,-4.703040123E-1,2.301476955E0,8.358298302E0
8.806234589E0,-3.912524879E-1,2.301476955E0,8.581079483E0
8.811285214E0,-3.289695084E-1,2.287103891E0,8.811047554E0
8.816335891E0,-2.451270074E-1,2.239193916E0,9.081739426E0
8.821386516E0,-2.738730013E-1,2.265544415E0,9.314102173E0
8.826437193E0,-3.433425128E-1,2.279917479E0,9.496160507E0
8.831474016E0,-4.056254923E-1,2.255962610E0,9.635099411E0
8.836524641E0,-4.703040123E-1,2.236798525E0,9.843507767E0
8.841575266E0,-5.182139874E-1,2.196074963E0,1.000640202E1
8.846625943E0,-5.589374900E-1,2.162538052E0,1.016450500E1
8.851676568E0,-5.230050087E-1,2.124209881E0,1.026032543E1
8.856727245E0,-5.373780131E-1,2.064322472E0,1.038249588E1
8.861780734E0,-5.445644855E-1,2.059531450E0,1.043998718E1
8.866831359E0,-5.230050087E-1,2.064322472E0,1.043759155E1
8.871882036E0,-5.493555069E-1,2.016412497E0,1.049268818E1
8.876932661E0,-5.421689749E-1,1.990061998E0,1.049029255E1
8.881983286E0,-5.685194731E-1,2.023598909E0,1.040884590E1
8.887033964E0,-5.445644855E-1,2.057136059E0,1.027230263E1
8.892096724E0,-4.990499914E-1,2.126605511E0,1.012378120E1
8.897147401E0,-4.415580034E-1,2.160142422E0,9.965678215E0
8.902198026E0,-4.176029861E-1,2.217634439E0,9.819553375E0
8.907248703E0,-3.816705048E-1,2.253566980E0,9.678218842E0
8.912299328E0,-2.810595036E-1,2.282313108E0,9.575211525E0
8.917349953E0,-2.187764943E-1,2.339804888E0,9.527301788E0
8.922399953E0,-9.660600126E-2,2.323036432E0,9.508137703E0
8.927450682E0,1.609500032E-3,2.342200518E0,9.558443069E0
8.932501359E0,5.431050062E-2,2.323036432E0,9.678218842E0
8.937552036E0,4.712399840E-2,2.248775959E0,9.831530571E0
8.942602714E0,6.149699911E-2,2.176911116E0,1.008545303E1
8.947653443E0,6.868349761E-2,2.083486557E0,1.039207745E1
8.952689953E0,4.951950163E-2,1.944547534E0,1.068911934E1
8.957740682E0,3.754200041E-2,1.822376966E0,1.093825150E1
8.962791359E0,-7.972500287E-3,1.707393050E0,1.119217491E1
8.967842036E0,-1.253519952E-1,1.616364002E0,1.136704636E1
8.972892766E0,-2.618955076E-1,1.597200036E0,1.153473091E1
8.977943495E0,-4.343715012E-1,1.532521486E0,1.166887856E1
8.982991307E0,-6.763169765E-1,1.498984456E0,1.181260872E1
8.988041984E0,-9.086804986E-1,1.451074481E0,1.192519760E1
8.993092661E0,-1.042828441E0,1.374418497E0,1.199706268E1
8.998143391E0,-1.064388037E0,1.331299543E0,1.194675732E1
9.003194068E0,-9.278445244E-1,1.257038951E0,1.184135532E1
9.008244797E0,-7.362045050E-1,1.223502040E0,1.171678925E1
9.013306151E0,-5.277959704E-1,1.166010022E0,1.150358963E1
9.018356828E0,-3.672975004E-1,1.113309026E0,1.135746384E1
9.023407505E0,-1.948215067E-1,1.077376485E0,1.124008465E1
9.028458234E0,-8.462850004E-2,1.072585464E0,1.114665985E1
9.033508911E0,6.400499959E-3,1.096540451E0,1.121612930E1
9.038559589E0,1.836674958E-1,1.163614511E0,1.128799438E1
9.043598703E0,3.824940026E-1,1.197151542E0,1.136465073E1
9.048649380E0,5.789250135E-1,1.230688453E0,1.143412018E1
9.053700057E0,6.891180277E-1,1.177987456E0,1.144609737E1
9.058750786E0,7.849379778E-1,1.158823490E0,1.140537357E1
9.063801464E0,8.256614804E-1,1.106122494E0,1.134548664E1
9.068852193E0,7.561920285E-1,9.959294796E-1,1.124487591E1
9.073901724E0,6.939089894E-1,8.689680099E-1,1.111072731E1
9.078952453E0,5.765295029E-1,8.306400180E-1,1.099813938E1
9.084003130E0,4.447770119E-1,6.773279905E-1,1.083764076E1
9.089053807E0,3.082334995E-1,4.593375027E-1,1.073463440E1
9.094104536E0,1.333619952E-1,2.293695062E-1,1.065797806E1
9.099155214E0,-4.150950164E-2,7.126650214E-2,1.061964989E1
9.104215005E0,-1.540980041E-1,-2.215800062E-2,1.062683678E1
9.109265734E0,-2.379405051E-1,-3.892650083E-2,1.063641834E1
9.114316411E0,-2.523134947E-1,-4.371749982E-2,1.065079117E1
9.119367089E0,-2.355449945E-1,1.377450023E-2,1.062204552E1
9.124417818E0,-2.067990005E-1,1.119899973E-1,1.059569454E1
9.129468495E0,-1.612845063E-1,2.293695062E-1,1.056694889E1
9.134513703E0,-1.253519952E-1,3.371669948E-1,1.051903915E1
9.139564432E0,-7.504650205E-2,4.353824854E-1,1.042082310E1
9.144615109E0,4.233299941E-2,5.120385289E-1,1.026751137E1
9.149665786E0,1.525260061E-1,6.078584790E-1,1.006389427E1
9.154716516E0,2.627190053E-1,7.036784887E-1,9.831530571E0
9.159767193E0,2.914650142E-1,7.947074771E-1,9.663845062E0
9.164813911E0,3.034425080E-1,8.737589717E-1,9.419504166E0
9.169864589E0,3.082334995E-1,9.001095295E-1,9.184745789E0
9.174915266E0,2.746964991E-1,9.312509894E-1,9.014664650E0
9.179965995E0,2.100179940E-1,9.863474965E-1,8.885308266E0
9.185016672E0,1.070114970E-1,1.024675488E0,8.775115013E0
9.190067349E0,3.993749991E-2,1.094145060E0,8.803860664E0
9.195120057E0,-6.546449661E-2,1.134868503E0,8.844584465E0
9.200170734E0,-1.301430017E-1,1.134868503E0,8.933218002E0
9.205221464E0,-1.517024934E-1,1.132472992E0,9.009874344E0
9.210272141E0,-1.205610037E-1,1.134868503E0,9.096112251E0
9.215322818E0,-6.785999984E-2,1.166010022E0,9.199118614E0
9.220373547E0,1.358699985E-2,1.120495558E0,9.266192436E0
9.225438443E0,1.837800071E-2,1.154032469E0,9.385967255E0
9.230489120E0,2.796000056E-2,1.103726983E0,9.417108536E0
9.235539849E0,8.795999922E-3,1.065399051E0,9.347639084E0
9.240590526E0,-3.181499895E-3,9.863474965E-1,9.232655525E0
9.245641203E0,7.347449660E-2,9.049004912E-1,9.091320992E0
9.250691932E0,1.597124934E-1,8.234534860E-1,8.973941803E0
9.255759224E0,1.597124934E-1,7.731480002E-1,8.875725746E0
9.260809953E0,1.213845015E-1,8.066849709E-1,8.839793205E0
9.265860630E0,8.784750104E-2,8.545950055E-1,8.849375725E0
9.270911359E0,5.431050062E-2,9.288554788E-1,8.911658287E0
9.275962036E0,2.796000056E-2,9.767655134E-1,9.029038429E0
9.281012714E0,4.951950163E-2,1.029466510E0,9.081739426E0
9.286057714E0,2.796000056E-2,1.051025987E0,9.117671967E0
9.291108443E0,7.347449660E-2,1.098935962E0,9.160790443E0
9.296159172E0,1.022204980E-1,1.084563017E0,9.175163269E0
9.301209849E0,5.191500112E-2,1.118100047E0,9.139230728E0
9.306260526E0,8.795999922E-3,1.177987456E0,9.132044792E0
9.311311203E0,-7.744199783E-2,1.185173988E0,9.024247169E0
9.316345682E0,-1.708665043E-1,1.156427979E0,8.973941803E0
9.321396411E0,-2.307540029E-1,1.144450545E0,8.938009262E0
9.326447089E0,-2.666864991E-1,1.216315508E0,8.863748550E0
9.331497818E0,-3.098055124E-1,1.249852538E0,8.722414017E0
9.336548495E0,-3.169920146E-1,1.278598547E0,8.624198914E0
9.341599172E0,-2.451270074E-1,1.254643559E0,8.487654686E0
9.346641151E0,-1.469115019E-1,1.221106529E0,8.317574501E0
9.351691828E0,-2.474099956E-2,1.151636958E0,8.133120537E0
9.356742557E0,1.837800071E-2,1.098935962E0,7.998972893E0
9.361793234E0,-1.276350021E-2,1.084563017E0,7.970226765E0
9.366843911E0,-7.744199783E-2,1.130077481E0,7.941481113E0
9.371894641E0,-1.828439981E-1,1.189965010E0,7.972622395E0
9.376941359E0,-2.786639929E-1,1.269016504E0,8.027718544E0
9.381992036E0,-3.217830062E-1,1.384000540E0,8.099583626E0
9.387042714E0,-3.696930110E-1,1.422328472E0,8.204985619E0
9.392093443E0,-3.792749941E-1,1.482216001E0,8.319970131E0
9.397144120E0,-3.361560106E-1,1.522939444E0,8.363088608E0
9.402194797E0,-3.241784871E-1,1.484611511E0,8.367879868E0
9.407256620E0,-2.810595036E-1,1.510962009E0,8.437349319E0
9.412307349E0,-2.427314967E-1,1.510962009E0,8.506818771E0
9.417358026E0,-1.900305003E-1,1.539708018E0,8.569102287E0
9.422408703E0,-1.876350045E-1,1.578035951E0,8.657735825E0
9.427459432E0,-1.612845063E-1,1.635527968E0,8.724809647E0
9.432510109E0,-1.540980041E-1,1.659482956E0,8.755950928E0
9.437557141E0,-1.421204954E-1,1.702602029E0,8.806256294E0
9.442607818E0,-1.085835025E-1,1.740929961E0,8.811047554E0
9.447658547E0,-8.223299682E-2,1.712183952E0,8.882912636E0
9.452709276E0,-3.192749992E-2,1.767280459E0,8.851771355E0
9.457759953E0,6.389249861E-2,1.855913997E0,8.866144180E0
9.462810630E0,9.263850003E-2,1.942152023E0,8.873330116E0
9.467883130E0,8.305650204E-2,1.973293543E0,8.866144180E0
9.472933859E0,6.149699911E-2,2.009226084E0,8.866144180E0
9.477984589E0,-2.713650092E-2,2.040367603E0,8.909262657E0
9.483035266E0,-1.109789982E-1,2.100255013E0,8.921240807E0
9.488085943E0,-2.044035047E-1,2.119419098E0,8.959568024E0
9.493136672E0,-2.642909884E-1,2.119419098E0,9.060179710E0
9.498165578E0,-3.193874955E-1,2.109837055E0,9.115276337E0
9.503216307E0,-3.122009933E-1,2.126605511E0,9.105693817E0
9.508266984E0,-2.810595036E-1,2.140978575E0,9.141626358E0
9.513317661E0,-3.505289853E-1,2.152956009E0,9.199118614E0
9.518368391E0,-3.960435092E-1,2.174515486E0,9.268588066E0
9.523419068E0,-4.631175101E-1,2.198470592E0,9.381176949E0
9.528461099E0,-4.559310079E-1,2.203261614E0,9.474600792E0
9.533511776E0,-4.511399865E-1,2.179306507E0,9.544070244E0
9.538562453E0,-4.966545105E-1,2.105046034E0,9.587189674E0
9.543613182E0,-4.798859954E-1,2.028389931E0,9.623122215E0
9.548663859E0,-4.750950038E-1,1.982875466E0,9.730919838E0
9.553714589E0,-4.535354972E-1,1.939756513E0,9.833926201E0
9.558780214E0,-4.583264887E-1,1.894242048E0,9.944119453E0
9.563830891E0,-4.223940074E-1,1.865496039E0,1.007587147E1
9.568881620E0,-4.199984968E-1,1.776862502E0,1.024355698E1
9.573932297E0,-4.104165137E-1,1.697811007E0,1.044238281E1
9.578982974E0,-4.176029861E-1,1.690624475E0,1.066276932E1
9.584033703E0,-4.679085016E-1,1.637923479E0,1.089513206E1
9.589099536E0,-5.469599962E-1,1.604386449E0,1.113947392E1
9.594150266E0,-6.236159801E-1,1.561267495E0,1.146765709E1
9.599200943E0,-6.667349935E-1,1.434306026E0,1.184854126E1
9.604251620E0,-7.002720237E-1,1.343276978E0,1.217432976E1
9.609302349E0,-7.697414756E-1,1.247457027E0,1.259354210E1
9.614353026E0,-8.440020084E-1,1.197151542E0,1.290735245E1
9.619386464E0,-8.943074942E-1,1.127681971E0,1.314211178E1
9.624437193E0,-1.018873453E0,1.048630476E0,1.329542351E1
9.629487870E0,-1.100320458E0,9.504150152E-1,1.329781914E1
9.634538599E0,-1.220095515E0,9.049004912E-1,1.306066418E1
9.639589276E0,-1.277587533E0,8.521994948E-1,1.276362228E1
9.644639953E0,-1.351848006E0,7.659615278E-1,1.238513374E1
9.649683703E0,-1.371011972E0,7.204470038E-1,1.200424862E1
9.654734380E0,-1.385385036E0,7.324244976E-1,1.164013290E1
9.659785109E0,-1.474018455E0,7.707524896E-1,1.137662792E1
9.664835839E0,-1.495578051E0,8.833410144E-1,1.115145111E1
9.669886464E0,-1.485996008E0,1.015093446E0,1.110114574E1
9.674937193E0,-1.497973442E0,1.139659524E0,1.110833168E1
9.679990266E0,-1.519533038E0,1.266620994E0,1.117540646E1
9.685040995E0,-1.536301494E0,1.348067999E0,1.121852493E1
9.690091672E0,-1.584211469E0,1.369627476E0,1.120415211E1
9.695142349E0,-1.715963960E0,1.345672488E0,1.116582394E1
9.700193078E0,-1.874066949E0,1.369627476E0,1.108198166E1
9.705243755E0,-1.957909465E0,1.374418497E0,1.100772095E1
9.710292609E0,-2.056124926E0,1.364836454E0,1.078973007E1
9.715343286E0,-2.060915947E0,1.403164506E0,1.060767269E1
9.720394016E0,-2.056124926E0,1.350463510E0,1.032260799E1
9.725444693E0,-1.962700486E0,1.321717501E0,9.975260735E0
9.730495370E0,-1.811784029E0,1.316926479E0,9.637495041E0
9.735546099E0,-1.634516954E0,1.316926479E0,9.309311867E0
9.740635422E0,-1.421317458E0,1.264225483E0,9.029038429E0
9.745686151E0,-1.155416965E0,1.175591946E0,8.815838814E0
9.750736828E0,-8.607705235E-1,1.036653042E0,8.710436821E0
9.755787557E0,-5.685194731E-1,8.713635206E-1,8.775115013E0
9.760838234E0,-3.672975004E-1,7.060739994E-1,9.076948166E0
9.765888911E0,-1.732620001E-1,6.605594754E-1,9.591980934E0
9.770971880E0,-9.660600126E-2,7.348200083E-1,1.023637009E1
9.776022609E0,-1.325384974E-1,8.066849709E-1,1.093346024E1
9.781073286E0,-2.139855027E-1,9.144824743E-1,1.176469898E1
9.786123964E0,-3.002234995E-1,9.576014876E-1,1.256719112E1
9.791174641E0,-3.744840026E-1,9.695789814E-1,1.322595406E1
9.796225370E0,-4.152075052E-1,9.504150152E-1,1.379608345E1
9.801198599E0,-5.158184767E-1,8.785499930E-1,1.424643707E1
9.806249328E0,-5.349825025E-1,8.569905162E-1,1.434704781E1
9.811300005E0,-5.397735238E-1,8.042895198E-1,1.417217636E1
9.816350734E0,-4.990499914E-1,7.587749958E-1,1.369307613E1
9.821401411E0,-5.206094980E-1,8.426175117E-1,1.291214371E1
9.826452089E0,-4.703040123E-1,1.048630476E0,1.192040634E1
9.831512453E0,-4.343715012E-1,1.245061517E0,1.097657967E1
9.836563182E0,-3.098055124E-1,1.431910515E0,1.005191612E1
9.841613859E0,-1.469115019E-1,1.542103529E0,9.050597191E0
9.846664589E0,2.077350020E-2,1.704997540E0,8.197799683E0
9.851715266E0,3.034425080E-1,1.882264495E0,7.409679890E0
9.856765943E0,5.070599914E-1,2.073904514E0,6.813200474E0
9.861814589E0,6.795359850E-1,2.267940044E0,6.360451221E0
9.866865318E0,7.801470160E-1,2.514676571E0,6.041849613E0
9.871915995E0,8.232660294E-1,2.718293905E0,5.890933037E0
9.876966724E0,8.544074893E-1,2.900352001E0,5.998730659E0
9.882017401E0,7.993109822E-1,3.022522449E0,6.223907471E0
9.887068078E0,8.328480124E-1,3.077619076E0,6.626351357E0
9.892107818E0,8.376389742E-1,3.091991901E0,7.028795719E0
9.897158495E0,8.160794973E-1,2.967426062E0,7.431239605E0
9.902209224E0,7.705649734E-1,2.790158987E0,7.845661163E0
9.907259901E0,6.747450233E-1,2.576959610E0,8.125934601E0
9.912310578E0,5.741339922E-1,2.387715101E0,8.399021149E0
9.917361307E0,4.495680034E-1,2.212843418E0,8.576288223E0
9.922410682E0,2.579280138E-1,2.090672970E0,8.672108650E0
9.927461307E0,4.951950163E-2,1.956524968E0,8.739182472E0
9.932511932E0,-1.540980041E-1,1.815190554E0,8.770323753E0
9.937562505E0,-2.978279889E-1,1.740929961E0,8.717622757E0
9.942613078E0,-4.319759905E-1,1.697811007E0,8.655340195E0
9.947663651E0,-5.589374900E-1,1.666669488E0,8.614616394E0
9.952746359E0,-6.547574997E-1,1.728952527E0,8.636176109E0
9.957796932E0,-6.595485210E-1,1.772071481E0,8.614616394E0
9.962847557E0,-6.595485210E-1,1.846331954E0,8.566706657E0
9.967898130E0,-6.835035086E-1,1.930174470E0,8.672108650E0
9.972948703E0,-6.978765130E-1,2.025994539E0,8.763137817E0
9.977999276E0,-6.882944703E-1,2.088277578E0,8.832607269E0
9.983033130E0,-6.882944703E-1,2.140978575E0,8.940404892E0
9.988083703E0,-6.715260148E-1,2.217634439E0,9.021851540E0
9.993134328E0,-6.164295077E-1,2.246380568E0,9.072156906E0
9.998184901E0,-5.397735238E-1,2.263149023E0,9.029038429E0
1.000323547E1,-4.966545105E-1,2.253566980E0,9.005083084E0
1.000828610E1,-5.038409829E-1,2.275126457E0,8.933218002E0
1.001333855E1,-5.397735238E-1,2.294290543E0,8.799070358E0
1.001838912E1,-5.924745202E-1,2.243984938E0,8.679294586E0
1.002343969E1,-6.475710273E-1,2.296685934E0,8.530774117E0
1.002849027E1,-7.098540068E-1,2.354177952E0,8.399021149E0
1.003354089E1,-7.601594925E-1,2.406878948E0,8.245709419E0
1.003859146E1,-7.601594925E-1,2.428438425E0,8.066046715E0
1.004362818E1,-7.936965227E-1,2.440416098E0,7.862429619E0
1.004867876E1,-8.296290040E-1,2.406878948E0,7.687558174E0
1.005372933E1,-8.847255111E-1,2.414065599E0,7.476754189E0
1.005877990E1,-9.182624817E-1,2.411669970E0,7.349792480E0
1.006383047E1,-9.302399755E-1,2.402087927E0,7.222830772E0
1.006888110E1,-9.829409719E-1,2.399692535E0,7.134197712E0
1.007393495E1,-1.006896019E0,2.433229446E0,7.131802082E0
1.007898553E1,-1.018873453E0,2.459579945E0,7.136592865E0
1.008403615E1,-1.028455496E0,2.536236048E0,7.232412815E0
1.008908672E1,-9.901275039E-1,2.605705500E0,7.404889107E0
1.009413730E1,-9.853364825E-1,2.708712101E0,7.584551334E0
1.009918787E1,-9.230535030E-1,2.747040033E0,7.840869904E0
1.010423266E1,-8.248379827E-1,2.814114094E0,8.039696693E0
1.010928323E1,-7.457864881E-1,2.885978937E0,8.133120537E0
1.011433386E1,-6.451755166E-1,2.919516087E0,8.252896309E0
1.011938443E1,-5.493555069E-1,2.914725065E0,8.379857063E0
1.012443500E1,-5.134230256E-1,2.948261976E0,8.410999298E0
1.012948563E1,-4.487445056E-1,3.000962973E0,8.497237206E0
1.013454433E1,-4.391624928E-1,3.029709101E0,8.537960052E0
1.013959490E1,-4.463489950E-1,3.036895514E0,8.660131454E0
1.014464547E1,-4.846769869E-1,3.053663969E0,8.739182472E0
1.014969605E1,-4.846769869E-1,3.111155987E0,8.846980095E0
1.015474667E1,-5.277959704E-1,3.123133421E0,8.973941803E0
1.015979724E1,-5.541465282E-1,3.135111094E0,9.179954529E0
1.016485214E1,-5.373780131E-1,3.149483919E0,9.378781319E0
1.016990271E1,-5.277959704E-1,3.103969574E0,9.498556137E0
1.017495329E1,-4.798859954E-1,3.075223446E0,9.623122215E0
1.018000391E1,-4.822815061E-1,3.048872948E0,9.757269859E0
1.018505448E1,-4.415580034E-1,2.979403496E0,9.826739311E0
1.019010506E1,-4.056254923E-1,2.941075563E0,9.855485916E0
1.019515079E1,-4.583264887E-1,2.885978937E0,9.853090286E0
1.020020136E1,-4.607219994E-1,2.828486919E0,9.920164108E0
1.020525193E1,-4.487445056E-1,2.830882549E0,1.000879765E1
1.021030256E1,-4.559310079E-1,2.833277941E0,1.008066273E1
1.021535313E1,-4.511399865E-1,2.790158987E0,1.016690063E1
1.022040370E1,-4.176029861E-1,2.730271578E0,1.033698082E1
1.022545193E1,-3.792749941E-1,2.677570581E0,1.056934452E1
1.023050250E1,-3.385514915E-1,2.620078564E0,1.085680485E1
1.023555308E1,-3.792749941E-1,2.596123457E0,1.118738365E1
1.024060365E1,-4.535354972E-1,2.507489920E0,1.151796246E1
1.024565422E1,-5.062364936E-1,2.394901514E0,1.194436169E1
1.025070480E1,-5.781015158E-1,2.239193916E0,1.229889584E1
1.025575558E1,-6.835035086E-1,2.133791924E0,1.265822029E1
1.026080620E1,-8.272334933E-1,2.066718102E0,1.295286655E1
1.026585678E1,-9.278445244E-1,1.982875466E0,1.322116280E1
1.027090740E1,-1.004500508E0,1.872682452E0,1.337926579E1
1.027595792E1,-9.973139763E-1,1.815190554E0,1.345592213E1
1.028100855E1,-8.990985155E-1,1.793630958E0,1.339363861E1
1.028605808E1,-6.763169765E-1,1.781653523E0,1.323793125E1
1.029110870E1,-4.223940074E-1,1.772071481E0,1.299598598E1
1.029615928E1,-1.708665043E-1,1.779258013E0,1.271092129E1
1.030120985E1,8.066099882E-2,1.817585945E0,1.241867065E1
1.030626047E1,2.507415116E-1,1.889451027E0,1.208330059E1
1.031131105E1,3.681209981E-1,2.016412497E0,1.185093689E1
1.031636865E1,4.016579986E-1,2.176911116E0,1.172876644E1
1.032141928E1,4.160310030E-1,2.358968973E0,1.168085670E1
1.032646985E1,3.992624879E-1,2.454788923E0,1.164252853E1
1.033152042E1,3.537479937E-1,2.500303507E0,1.156826782E1
1.033657105E1,3.202109933E-1,2.493117094E0,1.147484303E1
1.034162157E1,2.914650142E-1,2.394901514E0,1.139100075E1
1.034667323E1,2.507415116E-1,2.239193916E0,1.122810745E1
1.035172381E1,1.668989956E-1,2.117023468E0,1.106042194E1
1.035677443E1,6.149699911E-2,1.968502522E0,1.092387867E1
1.036182500E1,-6.306900084E-2,1.829563498E0,1.075379753E1
1.036687558E1,-2.115900069E-1,1.606781960E0,1.063162708E1
1.037192615E1,-3.672975004E-1,1.446283460E0,1.057413578E1
1.037698850E1,-4.319759905E-1,1.257038951E0,1.062444115E1
1.038203907E1,-4.679085016E-1,1.139659524E0,1.071307468E1
1.038708969E1,-4.128119946E-1,1.029466510E0,1.086159515E1
1.039214027E1,-2.355449945E-1,9.863474965E-1,1.108198166E1
1.039719084E1,-7.025550306E-2,9.599969983E-1,1.128080845E1
1.040224141E1,8.545199782E-2,9.959294796E-1,1.141016483E1
1.040728537E1,2.507415116E-1,1.082167506E0,1.148442554E1
1.041233594E1,3.561435044E-1,1.182778478E0,1.144849300E1
1.041738657E1,4.232175052E-1,1.297762513E0,1.136225510E1
1.042243714E1,4.878959954E-1,1.384000540E0,1.111312294E1
1.042748771E1,5.334104896E-1,1.436701536E0,1.078733540E1
1.043253829E1,6.459990144E-1,1.439097047E0,1.051424789E1
1.043757573E1,6.987000108E-1,1.388791442E0,1.023876572E1
1.044262636E1,6.627675295E-1,1.266620994E0,9.987237930E0
1.044767693E1,6.244394779E-1,1.192360520E0,9.944119453E0
1.045272750E1,5.717384815E-1,1.065399051E0,9.994424820E0
1.045777808E1,4.807094932E-1,9.264600277E-1,1.005191612E1
1.046282870E1,4.495680034E-1,8.186625242E-1,1.012617683E1
1.046790730E1,4.160310030E-1,7.204470038E-1,1.022199726E1
1.047295787E1,4.064489901E-1,6.581640244E-1,1.023157883E1
