"Time (s)","Gyroscope x (rad/s)","Gyroscope y (rad/s)","Gyroscope z (rad/s)"
7.875193200E-2,-6.832307577E-2,-6.556905061E-2,3.562258556E-2
8.376214100E-2,-6.086808071E-2,-7.621905208E-2,3.775258735E-2
8.883698400E-2,-4.276308045E-2,-1.007140502E-1,5.479258671E-2
9.386771400E-2,-2.998307720E-2,-1.326640546E-1,7.076758891E-2
9.892797400E-2,-2.252807841E-2,-1.582240611E-1,7.609258592E-2
1.039582860E-1,-2.359307930E-2,-1.827190667E-1,7.502758503E-2
1.090244320E-1,-3.104807809E-2,-2.008240670E-1,6.437758356E-2
1.140631300E-1,-4.169807956E-2,-2.146690637E-1,4.946758598E-2
1.191437550E-1,-6.619308144E-2,-2.306440622E-1,2.603758685E-2
1.241703700E-1,-9.601307660E-2,-2.412940562E-1,2.607585862E-3
1.292498490E-1,-1.226380765E-1,-2.380990535E-1,-1.762741432E-2
1.342744320E-1,-1.492630839E-1,-2.285140604E-1,-3.360241279E-2
1.393147450E-1,-1.694980860E-1,-2.157340646E-1,-4.744741321E-2
1.443631820E-1,-1.790830791E-1,-2.040190548E-1,-5.490241200E-2
1.494113590E-1,-1.833430827E-1,-1.965640634E-1,-5.916241556E-2
1.544841200E-1,-1.801480800E-1,-1.912390590E-1,-5.916241556E-2
1.595306820E-1,-1.694980860E-1,-1.891090572E-1,-5.703241378E-2
1.645766720E-1,-1.588480771E-1,-1.891090572E-1,-5.064241216E-2
1.696439110E-1,-1.471330822E-1,-1.859140545E-1,-4.105741531E-2
1.746933910E-1,-1.354180723E-1,-1.859140545E-1,-3.360241279E-2
1.797412550E-1,-1.247680783E-1,-1.869790554E-1,-2.401741408E-2
1.847791200E-1,-1.151830778E-1,-1.912390590E-1,-1.656241342E-2
1.898015160E-1,-1.077280790E-1,-1.944340616E-1,-8.042413741E-3
1.948962550E-1,-1.055980772E-1,-1.933690608E-1,-2.717413940E-3
1.999162030E-1,-1.087930799E-1,-1.901740581E-1,5.802586209E-3
2.049847970E-1,-1.194430813E-1,-1.944340616E-1,1.006258652E-2
2.100519840E-1,-1.332880855E-1,-2.018890679E-1,1.325758640E-2
2.150885470E-1,-1.524580717E-1,-2.136040628E-1,1.325758640E-2
2.201393800E-1,-1.716280729E-1,-2.285140604E-1,1.006258652E-2
2.251641200E-1,-1.950580776E-1,-2.412940562E-1,3.672586055E-3
2.302089640E-1,-2.184880823E-1,-2.508790493E-1,-8.042413741E-3
2.352733390E-1,-2.419180721E-1,-2.562040389E-1,-1.762741432E-2
2.403650570E-1,-2.664130926E-1,-2.519440353E-1,-2.934241295E-2
2.454185990E-1,-2.877130806E-1,-2.508790493E-1,-3.786241263E-2
2.504653700E-1,-3.015580773E-1,-2.434240580E-1,-4.212241247E-2
2.555204740E-1,-3.004930913E-1,-2.242540568E-1,-4.318741336E-2
2.605661510E-1,-2.855830789E-1,-1.976290643E-1,-4.638241231E-2
2.656256820E-1,-2.610880733E-1,-1.635490656E-1,-4.957741499E-2
2.706757340E-1,-2.344630808E-1,-1.188190505E-1,-5.277241394E-2
2.757207860E-1,-2.067730725E-1,-6.130905449E-2,-5.277241394E-2
2.807648490E-1,-1.822780818E-1,5.785944872E-3,-4.638241231E-2
2.858223490E-1,-1.652380824E-1,7.820595056E-2,-3.786241263E-2
2.908719320E-1,-1.609780788E-1,1.453009397E-1,-2.082241327E-2
2.959241720E-1,-1.588480771E-1,2.081359327E-1,-2.717413940E-3
3.009792760E-1,-1.556530744E-1,2.613859475E-1,1.858258620E-2
3.060352140E-1,-1.545880735E-1,2.880109549E-1,3.668758646E-2
3.110719840E-1,-1.524580717E-1,2.975959480E-1,5.159758776E-2
3.161210470E-1,-1.396780759E-1,2.912059426E-1,6.437758356E-2
3.211817760E-1,-1.226380765E-1,2.624509633E-1,7.076758891E-2
3.262367760E-1,-1.055980772E-1,2.230459452E-1,6.757258624E-2
3.312831300E-1,-8.962307870E-2,1.751209348E-1,5.479258671E-2
3.363555260E-1,-7.897307724E-2,1.218709499E-1,3.562258556E-2
3.413886510E-1,-7.577808201E-2,7.394594699E-2,1.112758648E-2
3.464086510E-1,-7.471308112E-2,3.028094582E-2,-1.443241350E-2
3.514540160E-1,-8.536307514E-2,-1.018905547E-2,-3.786241263E-2
3.565053180E-1,-9.494807571E-2,-4.426905513E-2,-5.383741483E-2
3.615578700E-1,-1.034680754E-1,-7.621905208E-2,-6.661741436E-2
3.666266720E-1,-1.205080822E-1,-1.017790511E-1,-7.194241136E-2
3.716729740E-1,-1.428730786E-1,-1.220140532E-1,-6.448741257E-2
3.767100570E-1,-1.652380824E-1,-1.273390651E-1,-4.851241410E-2
3.817733390E-1,-1.939930767E-1,-1.326640546E-1,-2.614741400E-2
3.868273490E-1,-2.259430736E-1,-1.369240582E-1,-5.912413821E-3
3.918439640E-1,-2.546980679E-1,-1.379890591E-1,7.932586595E-3
3.969291720E-1,-2.770630717E-1,-1.326640546E-1,1.964758709E-2
4.019757860E-1,-3.026230931E-1,-1.315990537E-1,1.858258620E-2
4.070492760E-1,-3.207280934E-1,-1.294690669E-1,1.538758632E-2
4.121025570E-1,-3.377680779E-1,-1.198840514E-1,1.006258652E-2
4.171449010E-1,-3.526780903E-1,-9.964905679E-2,2.607585862E-3
4.221901610E-1,-3.697180748E-1,-7.408905029E-2,-2.717413940E-3
4.272302140E-1,-3.878230751E-1,-4.107405245E-2,-6.977413781E-3
4.322899010E-1,-4.101880789E-1,-1.338405535E-2,-1.230241358E-2
4.373579740E-1,-4.240330756E-1,4.609450698E-4,-1.656241342E-2
4.423896930E-1,-4.304230809E-1,-6.040551234E-4,-2.508241311E-2
4.474397450E-1,-4.293580651E-1,-4.864055198E-3,-3.679741547E-2
4.524956300E-1,-4.229680896E-1,-1.657905430E-2,-4.851241410E-2
4.575521410E-1,-4.069930911E-1,-2.935905568E-2,-5.809741467E-2
4.625888070E-1,-3.793030679E-1,-3.042405657E-2,-7.407241315E-2
4.676448490E-1,-3.441580832E-1,-3.574905545E-2,-9.324241430E-2
4.727052140E-1,-3.122080863E-1,-4.107405245E-2,-1.081524119E-1
4.777529220E-1,-2.813230753E-1,-4.746405780E-2,-1.145424172E-1
4.828001610E-1,-2.600230873E-1,-5.598405749E-2,-1.102824137E-1
4.878553700E-1,-2.451130748E-1,-6.024405360E-2,-1.006974131E-1
4.929065160E-1,-2.429830730E-1,-6.450404972E-2,-8.791741729E-2
4.979554220E-1,-2.515030801E-1,-6.663405150E-2,-6.555241346E-2
5.030073490E-1,-2.653480768E-1,-7.834905386E-2,-4.212241247E-2
5.080416200E-1,-2.845180929E-1,-9.538905323E-2,-1.549741346E-2
5.131079740E-1,-3.058180809E-1,-1.124290526E-1,1.112758648E-2
5.182258910E-1,-3.196630776E-1,-1.262740642E-1,3.136258572E-2
5.231809430E-1,-3.313780725E-1,-1.326640546E-1,4.733758792E-2
5.282302140E-1,-3.377680779E-1,-1.358590573E-1,4.946758598E-2
5.332720360E-1,-3.388330936E-1,-1.294690669E-1,3.668758646E-2
5.383319320E-1,-3.356380761E-1,-1.124290526E-1,1.006258652E-2
5.433975050E-1,-3.249880672E-1,-8.686905354E-2,-2.188741416E-2
5.484461510E-1,-3.090130687E-1,-5.385405570E-2,-5.703241378E-2
5.534917760E-1,-2.909080684E-1,-2.509905584E-2,-8.365741372E-2
5.585410470E-1,-2.642830908E-1,2.590944991E-3,-9.856741130E-2
5.636146930E-1,-2.376580834E-1,3.347594291E-2,-1.006974131E-1
5.686528700E-1,-2.110330760E-1,5.903594196E-2,-9.004741162E-2
5.736968800E-1,-1.897330731E-1,8.353094757E-2,-7.513741404E-2
5.787407860E-1,-1.737580746E-1,9.737594426E-2,-5.277241394E-2
5.837964640E-1,-1.620430797E-1,1.101559475E-1,-2.934241295E-2
5.888243800E-1,-1.513930857E-1,1.122859493E-1,-1.336741354E-2
5.939134950E-1,-1.428730786E-1,1.101559475E-1,-4.847413860E-3
5.989585990E-1,-1.343530715E-1,1.027009487E-1,-6.977413781E-3
6.040225570E-1,-1.237030774E-1,8.672595024E-2,-1.869241334E-2
6.090622450E-1,-1.119880825E-1,6.755594909E-2,-3.253741562E-2
6.141107340E-1,-1.024030820E-1,4.838594794E-2,-4.212241247E-2
6.191631820E-1,-9.068807960E-2,2.176094428E-2,-4.531741515E-2
6.241720890E-1,-8.323308080E-2,-3.799055237E-3,-4.638241231E-2
6.292366200E-1,-7.471308112E-2,-3.148905188E-2,-4.425241426E-2
6.342839110E-1,-7.151807845E-2,-5.385405570E-2,-4.425241426E-2
6.393392240E-1,-7.151807845E-2,-7.195905596E-2,-4.531741515E-2
6.443700050E-1,-7.897307724E-2,-9.325905144E-2,-5.490241200E-2
6.494271410E-1,-9.281808138E-2,-1.134940535E-1,-6.661741436E-2
6.544771930E-1,-1.109230816E-1,-1.390540600E-1,-8.152741194E-2
6.595635990E-1,-1.300930828E-1,-1.624840647E-1,-9.750241041E-2
6.646106300E-1,-1.545880735E-1,-1.795240641E-1,-1.102824137E-1
6.696328180E-1,-1.769530773E-1,-1.923040599E-1,-1.166724116E-1
6.746772970E-1,-1.993180811E-1,-2.040190548E-1,-1.134774163E-1
6.797608910E-1,-2.174230814E-1,-2.167990655E-1,-1.028274149E-1
6.847883910E-1,-2.302030772E-1,-2.253190577E-1,-8.685241640E-2
6.898331300E-1,-2.355280817E-1,-2.327740639E-1,-7.513741404E-2
6.948917240E-1,-2.429830730E-1,-2.295790613E-1,-6.555241346E-2
6.999417240E-1,-2.461780757E-1,-2.136040628E-1,-5.490241200E-2
7.050166720E-1,-2.419180721E-1,-1.933690608E-1,-4.851241410E-2
7.100311510E-1,-2.387230843E-1,-1.752640605E-1,-4.425241426E-2
7.151107340E-1,-2.365930825E-1,-1.614190638E-1,-4.318741336E-2
7.201675570E-1,-2.355280817E-1,-1.507690549E-1,-5.064241216E-2
7.251951610E-1,-2.429830730E-1,-1.486390680E-1,-6.342241168E-2
7.302663590E-1,-2.515030801E-1,-1.486390680E-1,-7.620241493E-2
7.353179740E-1,-2.664130926E-1,-1.539640576E-1,-8.472241461E-2
7.403602660E-1,-2.823880911E-1,-1.603540629E-1,-9.004741162E-2
7.454254740E-1,-3.004930913E-1,-1.646140665E-1,-8.898241073E-2
7.504684430E-1,-3.175330758E-1,-1.805890650E-1,-8.365741372E-2
7.555206300E-1,-3.345730901E-1,-2.029540539E-1,-7.407241315E-2
7.605679740E-1,-3.516130745E-1,-2.327740639E-1,-6.981241703E-2
7.656029220E-1,-3.665230870E-1,-2.689840496E-1,-6.981241703E-2
7.706791200E-1,-3.814330697E-1,-3.137140572E-1,-7.513741404E-2
7.757230260E-1,-3.920830786E-1,-3.605740368E-1,-7.726741582E-2
7.807714640E-1,-3.931480646E-1,-4.010440409E-1,-8.152741194E-2
7.858220360E-1,-3.867580891E-1,-4.234090447E-1,-8.791741729E-2
7.908483910E-1,-3.697180748E-1,-4.287340343E-1,-1.038924158E-1
7.959273490E-1,-3.484180868E-1,-4.223440588E-1,-1.134774163E-1
8.009775050E-1,-3.196630776E-1,-4.170190394E-1,-1.166724116E-1
8.060236510E-1,-2.823880911E-1,-4.234090447E-1,-1.124124154E-1
8.110765160E-1,-2.419180721E-1,-4.297990501E-1,-1.049574167E-1
8.161307340E-1,-1.971880794E-1,-4.212790430E-1,-9.643741697E-2
8.211764640E-1,-1.492630839E-1,-4.063690603E-1,-8.578741550E-2
8.261956820E-1,-1.045330763E-1,-3.829390407E-1,-7.726741582E-2
8.312765680E-1,-6.512808055E-2,-3.584440351E-1,-7.300741225E-2
8.363130780E-1,-3.424307704E-2,-3.360790312E-1,-7.407241315E-2
8.413484950E-1,-7.618078031E-3,-3.094540536E-1,-7.620241493E-2
8.464360990E-1,1.261692215E-2,-2.849590480E-1,-8.046241105E-2
8.514822450E-1,2.326692268E-2,-2.615290582E-1,-8.685241640E-2
8.565342240E-1,3.072192147E-2,-2.359690666E-1,-9.643741697E-2
8.615534950E-1,3.285191953E-2,-2.146690637E-1,-1.049574167E-1
8.666408390E-1,2.646192163E-2,-2.029540539E-1,-1.113474146E-1
8.716635990E-1,2.113692090E-2,-1.837840676E-1,-1.102824137E-1
8.767867240E-1,2.220192179E-2,-1.646140665E-1,-1.028274149E-1
8.818076090E-1,2.539692074E-2,-1.539640576E-1,-8.898241073E-2
8.868256300E-1,2.965692058E-2,-1.560940593E-1,-7.300741225E-2
8.918927140E-1,3.498192132E-2,-1.592890620E-1,-5.383741483E-2
8.969290680E-1,4.350192100E-2,-1.667440534E-1,-2.508241311E-2
9.019758390E-1,5.308692157E-2,-1.667440534E-1,-3.782414133E-3
9.070386510E-1,5.841192231E-2,-1.603540629E-1,1.219258644E-2
9.120754220E-1,6.480192393E-2,-1.592890620E-1,2.710258588E-2
9.171321930E-1,7.864692062E-2,-1.678090543E-1,5.266258493E-2
9.221806820E-1,9.781692177E-2,-1.773940623E-1,9.100258350E-2
9.272266720E-1,1.276369244E-1,-1.752640605E-1,1.399925798E-1
9.322684430E-1,1.691719145E-1,-1.614190638E-1,1.911125779E-1
9.373603180E-1,2.107069194E-1,-1.390540600E-1,2.379725724E-1
9.423731300E-1,2.554369271E-1,-6.982905418E-2,2.858975828E-1
9.474315160E-1,2.809969187E-1,2.123959363E-1,3.785525858E-1
9.524964110E-1,2.799319327E-1,4.722559452E-1,5.095475912E-1
9.575372970E-1,2.554369271E-1,4.637359679E-1,6.213725805E-1
9.625879220E-1,1.947319210E-1,2.422159463E-1,6.799476147E-1
9.676364110E-1,1.084669232E-1,-4.639905691E-2,6.554526091E-1
9.726990160E-1,2.752692252E-2,-2.625940442E-1,5.713176131E-1
9.777483910E-1,-3.850308061E-2,-3.392740488E-1,4.669475853E-1
9.827908910E-1,-8.749307692E-2,-3.073240519E-1,3.764225841E-1
9.878413590E-1,-1.194430813E-1,-2.359690666E-1,3.199775815E-1
9.929008910E-1,-1.481980830E-1,-1.752640605E-1,2.954826057E-1
9.979406820E-1,-1.758880764E-1,-1.241440549E-1,2.890926003E-1
1.003006151E0,-2.110330760E-1,-8.686905354E-2,2.858975828E-1
1.008041724E0,-2.504380643E-1,-6.130905449E-2,2.848325968E-1
1.013088859E0,-2.909080684E-1,-5.385405570E-2,2.720525861E-1
1.018143807E0,-3.335080743E-1,-6.130905449E-2,2.528825998E-1
1.023204641E0,-3.697180748E-1,-6.556905061E-2,2.294525802E-1
1.028271203E0,-4.027330875E-1,-7.195905596E-2,1.964375824E-1
1.033326464E0,-4.346830845E-1,-7.089405507E-2,1.570325792E-1
1.038373234E0,-4.645030797E-1,-6.237405539E-2,1.069775894E-1
1.043430474E0,-4.900630713E-1,-4.320405424E-2,4.946758598E-2
1.048471672E0,-5.102980733E-1,-1.338405535E-2,-1.123741362E-2
1.053499380E0,-5.220130682E-1,2.602094412E-2,-6.661741436E-2
1.058553234E0,-5.209480524E-1,6.329594553E-2,-1.092174128E-1
1.063601516E0,-5.007130504E-1,1.005709469E-1,-1.315824240E-1
1.068656724E0,-4.623730779E-1,1.431709379E-1,-1.305174232E-1
1.073708130E0,-4.101880789E-1,1.857709438E-1,-1.081524119E-1
1.078759484E0,-3.494830728E-1,2.187859416E-1,-8.046241105E-2
1.083810839E0,-2.855830789E-1,2.326309383E-1,-5.809741467E-2
1.088862245E0,-2.227480859E-1,2.198509425E-1,-5.170741305E-2
1.093913651E0,-1.620430797E-1,1.921609342E-1,-5.809741467E-2
1.098958651E0,-9.601307660E-2,1.527559459E-1,-6.874741614E-2
1.104010057E0,-2.572307736E-2,1.154809445E-1,-8.685241640E-2
1.109061411E0,4.456692189E-2,8.566094935E-2,-1.028274149E-1
1.114112818E0,1.169869229E-1,6.223094463E-2,-1.198674142E-1
1.119164172E0,1.862119138E-1,4.519094527E-2,-1.283874214E-1
1.124215578E0,2.543719113E-1,1.963094436E-2,-1.315824240E-1
1.129264693E0,3.108169138E-1,-6.994054653E-3,-1.347774267E-1
1.134316047E0,3.523519337E-1,-3.468405455E-2,-1.401024163E-1
1.139367453E0,3.725869358E-1,-4.852905869E-2,-1.486224234E-1
1.144418807E0,3.832369149E-1,-4.746405780E-2,-1.571424156E-1
1.149470214E0,3.843019307E-1,-4.213905334E-2,-1.571424156E-1
1.154521620E0,3.747169077E-1,-3.148905188E-2,-1.507524252E-1
1.159587141E0,3.555469215E-1,-1.870905422E-2,-1.326474249E-1
1.164638547E0,3.299869299E-1,-1.669054851E-3,-1.038924158E-1
1.169689953E0,3.022969067E-1,1.430594455E-2,-6.555241346E-2
1.174741307E0,2.735419273E-1,3.454094380E-2,-2.721241303E-2
1.179792661E0,2.469169199E-1,5.477594584E-2,6.867586169E-3
1.184844068E0,2.234869152E-1,7.607594877E-2,3.136258572E-2
1.189896411E0,2.000569254E-1,8.779094368E-2,4.414258525E-2
1.194947818E0,1.840819269E-1,8.672595024E-2,4.946758598E-2
1.199999224E0,1.702369153E-1,7.181594521E-2,5.266258493E-2
1.205050578E0,1.585219204E-1,5.477594584E-2,5.585758761E-2
1.210101932E0,1.500019282E-1,3.028094582E-2,6.437758356E-2
1.215153339E0,1.425469220E-1,5.785944872E-3,7.183258981E-2
1.220208182E0,1.329619139E-1,-1.231905539E-2,7.183258981E-2
1.225259589E0,1.223119199E-1,-2.509905584E-2,6.863758713E-2
1.230310995E0,1.074019223E-1,-3.574905545E-2,6.224758551E-2
1.235362349E0,8.716692030E-2,-3.681405634E-2,5.692258477E-2
1.240413755E0,7.225692272E-2,-3.255405277E-2,5.372758582E-2
1.245465161E0,5.628192052E-2,-1.657905430E-2,5.159758776E-2
1.250457141E0,3.604692221E-2,3.655944951E-3,5.692258477E-2
1.255508547E0,1.048692223E-2,2.069594525E-2,6.331258267E-2
1.260559901E0,-1.187807787E-2,3.347594291E-2,6.863758713E-2
1.265611307E0,-3.104807809E-2,5.158094317E-2,7.502758503E-2
1.270662714E0,-4.808807746E-2,5.903594196E-2,8.674258739E-2
1.275714068E0,-6.086808071E-2,6.649094820E-2,1.027175859E-1
1.280754172E0,-6.725808233E-2,6.329594553E-2,1.197575852E-1
1.285805578E0,-6.725808233E-2,4.838594794E-2,1.389275789E-1
1.290856932E0,-6.086808071E-2,3.773594648E-2,1.591625810E-1
1.295908339E0,-4.915307835E-2,3.347594291E-2,1.793975830E-1
1.300959745E0,-3.637307882E-2,3.560594469E-2,1.975025833E-1
1.306011099E0,-2.359307930E-2,3.347594291E-2,2.102825791E-1
1.311099797E0,-7.618078031E-3,3.241094574E-2,2.134775817E-1
1.316151151E0,1.048692223E-2,3.773594648E-2,2.092175782E-1
1.321202505E0,2.539692074E-2,4.519094527E-2,1.911125779E-1
1.326253911E0,3.924192116E-2,5.797094852E-2,1.655525714E-1
1.331305266E0,4.776192084E-2,6.010094285E-2,1.357325763E-1
1.336356672E0,5.202192068E-2,6.223094463E-2,1.069775894E-1
1.341402818E0,5.734692141E-2,6.968594342E-2,7.928758860E-2
1.346454224E0,6.267192215E-2,8.140094578E-2,5.479258671E-2
1.351505578E0,6.267192215E-2,9.205094725E-2,3.349258751E-2
1.356556984E0,5.734692141E-2,9.737594426E-2,1.964758709E-2
1.361608339E0,4.669691995E-2,9.098594636E-2,7.932586595E-3
1.366659745E0,2.752692252E-2,7.927094400E-2,-2.717413940E-3
1.371699641E0,8.356922306E-3,6.649094820E-2,-6.977413781E-3
1.376751047E0,-9.748077951E-3,5.158094317E-2,-2.717413940E-3
1.381802401E0,-2.998307720E-2,4.625594616E-2,4.737586249E-3
1.386853807E0,-4.595807940E-2,4.412594438E-2,1.538758632E-2
1.391905161E0,-6.725808233E-2,4.945094138E-2,2.284258604E-2
1.396956568E0,-8.749307692E-2,5.477594584E-2,2.603758685E-2
1.402005370E0,-1.034680754E-1,6.436094642E-2,2.603758685E-2
1.407056776E0,-1.141180769E-1,7.820595056E-2,1.858258620E-2
1.412108130E0,-1.237030774E-1,9.950594604E-2,3.672586055E-3
1.417159536E0,-1.364830732E-1,1.197409481E-1,-1.123741362E-2
1.422210943E0,-1.450030804E-1,1.346509457E-1,-1.762741432E-2
1.427262297E0,-1.481980830E-1,1.389109343E-1,-1.869241334E-2
1.432279380E0,-1.460680813E-1,1.357159466E-1,-3.782414133E-3
1.437330786E0,-1.428730786E-1,1.197409481E-1,1.112758648E-2
1.442382141E0,-1.322230846E-1,9.098594636E-2,2.923258580E-2
1.447433547E0,-1.162480786E-1,5.371094495E-2,4.414258525E-2
1.452484953E0,-1.024030820E-1,1.430594455E-2,4.946758598E-2
1.457536307E0,-8.749307692E-2,-9.124054573E-3,4.627258703E-2
1.462604276E0,-7.471308112E-2,-2.190405503E-2,3.029758669E-2
1.467655630E0,-6.086808071E-2,-2.722905576E-2,8.997586556E-3
1.472707036E0,-4.808807746E-2,-2.190405503E-2,-1.549741346E-2
1.477758391E0,-3.743807971E-2,-2.734054811E-3,-3.999241441E-2
1.482809797E0,-3.211307898E-2,2.815094590E-2,-6.448741257E-2
1.487861151E0,-3.104807809E-2,6.116594374E-2,-8.578741550E-2
1.492910891E0,-3.530807793E-2,8.459594846E-2,-9.217741340E-2
1.497962297E0,-4.489307851E-2,1.005709469E-1,-8.898241073E-2
1.503013651E0,-5.660807714E-2,1.154809445E-1,-7.620241493E-2
1.508065057E0,-7.045307755E-2,1.240009442E-1,-6.235741451E-2
1.513116411E0,-8.003807813E-2,1.314559430E-1,-4.531741515E-2
1.518167818E0,-8.749307692E-2,1.325209439E-1,-4.105741531E-2
1.523213078E0,-9.175308049E-2,1.314559430E-1,-4.318741336E-2
1.528264484E0,-9.494807571E-2,1.250659376E-1,-3.999241441E-2
1.533315839E0,-8.749307692E-2,1.208059490E-1,-4.105741531E-2
1.538367245E0,-7.790807635E-2,1.218709499E-1,-4.212241247E-2
1.543418599E0,-6.619308144E-2,1.303909421E-1,-4.744741321E-2
1.548470005E0,-5.447807908E-2,1.421059370E-1,-5.383741483E-2
1.553520891E0,-4.276308045E-2,1.495609432E-1,-6.555241346E-2
1.558572297E0,-3.104807809E-2,1.559509337E-1,-7.833241671E-2
1.563623651E0,-2.359307930E-2,1.634059399E-1,-8.578741550E-2
1.568675057E0,-1.507307868E-2,1.602109373E-1,-8.365741372E-2
1.573726411E0,-5.488078110E-3,1.474309415E-1,-7.194241136E-2
1.578777818E0,8.356922306E-3,1.229359433E-1,-5.383741483E-2
1.583821776E0,2.539692074E-2,9.205094725E-2,-3.573241457E-2
1.588873182E0,4.563192278E-2,6.329594553E-2,-1.549741346E-2
1.593924536E0,6.373692304E-2,3.560594469E-2,4.775859998E-4
1.598975943E0,8.290692419E-2,4.720944911E-3,1.006258652E-2
1.604027297E0,9.888192266E-2,-2.296905592E-2,1.432258636E-2
1.609078703E0,1.116619185E-1,-4.959405214E-2,1.006258652E-2
1.614105161E0,1.233769208E-1,-7.089405507E-2,4.737586249E-3
1.619156516E0,1.329619139E-1,-7.515405118E-2,-3.782414133E-3
1.624207922E0,1.382869184E-1,-6.556905061E-2,-1.762741432E-2
1.629259328E0,1.425469220E-1,-4.533405602E-2,-2.934241295E-2
1.634310682E0,1.361569166E-1,-1.764405519E-2,-4.425241426E-2
1.639362036E0,1.233769208E-1,1.643594541E-2,-6.129241362E-2
1.644421099E0,1.095319241E-1,4.838594794E-2,-8.046241105E-2
1.649472505E0,8.929692209E-2,7.394594699E-2,-9.750241041E-2
1.654523859E0,6.693191826E-2,9.418094903E-2,-1.070874110E-1
1.659575266E0,4.456692189E-2,1.090909466E-1,-1.102824137E-1
1.664626620E0,2.326692268E-2,1.208059490E-1,-1.070874110E-1
1.669678026E0,7.291921880E-3,1.197409481E-1,-9.750241041E-2
1.674729484E0,-4.423077684E-3,1.208059490E-1,-8.365741372E-2
1.679780839E0,-1.187807787E-2,1.080259457E-1,-6.874741614E-2
1.684832245E0,-1.294307783E-2,8.246594667E-2,-5.490241200E-2
1.689883599E0,-1.081307791E-2,5.797094852E-2,-4.105741531E-2
1.694935005E0,-2.293077996E-3,3.454094380E-2,-2.827741392E-2
1.699986359E0,1.261692215E-2,8.980944753E-3,-1.762741432E-2
1.705038443E0,3.072192147E-2,-8.059054613E-3,-1.017241366E-2
1.710089797E0,5.202192068E-2,-1.444905438E-2,-9.107413702E-3
1.715141203E0,7.225692272E-2,-9.124054573E-3,-1.656241342E-2
1.720192557E0,8.503691852E-2,-6.040551234E-4,-2.614741400E-2
1.725243964E0,9.781692177E-2,1.004594564E-2,-3.466741368E-2
1.730295318E0,1.074019223E-1,1.750094444E-2,-3.786241263E-2
1.735340578E0,1.105969176E-1,1.963094436E-2,-3.786241263E-2
1.740391932E0,1.063369215E-1,1.856594533E-2,-3.573241457E-2
1.745443339E0,1.010119244E-1,1.537094545E-2,-2.827741392E-2
1.750494693E0,9.142692387E-2,1.111094467E-2,-1.975741424E-2
1.755546099E0,7.545191795E-2,-6.040551234E-4,-1.336741354E-2
1.760597453E0,5.841192231E-2,-1.231905539E-2,-1.230241358E-2
1.765646984E0,3.711191937E-2,-2.083905414E-2,-1.123741362E-2
1.770698339E0,1.155192219E-2,-2.403405495E-2,-1.230241358E-2
1.775749745E0,-9.748077951E-3,-1.977405511E-2,-1.017241366E-2
1.780801099E0,-2.465807647E-2,-9.124054573E-3,-3.782414133E-3
1.785852505E0,-3.956807777E-2,8.980944753E-3,4.775859998E-4
1.790903859E0,-4.915307835E-2,2.602094412E-2,-2.717413940E-3
1.795937922E0,-5.021807924E-2,3.667094558E-2,4.775859998E-4
1.800989328E0,-4.382807761E-2,3.667094558E-2,3.672586055E-3
1.806040682E0,-3.424307704E-2,2.602094412E-2,7.932586595E-3
1.811092089E0,-1.613807678E-2,2.069594525E-2,1.325758640E-2
1.816143443E0,4.096921999E-3,1.856594533E-2,1.858258620E-2
1.821194849E0,2.220192179E-2,1.324094459E-2,2.390758693E-2
1.826210422E0,3.711191937E-2,2.590944991E-3,3.242758662E-2
1.831261828E0,5.095691979E-2,-5.929054692E-3,3.988258541E-2
1.836313182E0,6.586692482E-2,-1.125405543E-2,4.733758792E-2
1.841364589E0,7.438692451E-2,-1.018905547E-2,5.479258671E-2
1.846415943E0,7.971192151E-2,-1.338405535E-2,6.118258461E-2
1.851467349E0,8.077692240E-2,-1.338405535E-2,6.331258267E-2
1.856527297E0,7.864692062E-2,-8.059054613E-3,5.585758761E-2
1.861578651E0,7.758191973E-2,-1.669054851E-3,4.840258509E-2
1.866630057E0,7.545191795E-2,5.785944872E-3,3.881758451E-2
1.871681411E0,7.225692272E-2,1.324094459E-2,2.710258588E-2
1.876732818E0,7.119192183E-2,1.324094459E-2,1.858258620E-2
1.881784172E0,7.225692272E-2,1.430594455E-2,1.112758648E-2
1.886848859E0,7.012692094E-2,1.430594455E-2,1.542586018E-3
1.891900214E0,6.799691916E-2,1.111094467E-2,-9.107413702E-3
1.896951620E0,6.054192036E-2,7.915944792E-3,-2.401741408E-2
1.902002974E0,4.882692173E-2,1.430594455E-2,-3.360241279E-2
1.907054380E0,3.072192147E-2,2.176094428E-2,-3.679741547E-2
1.912105786E0,9.421922266E-3,3.028094582E-2,-3.360241279E-2
1.917168703E0,-1.081307791E-2,3.347594291E-2,-2.082241327E-2
1.922220057E0,-3.104807809E-2,3.986594826E-2,-2.717413940E-3
1.927271464E0,-4.808807746E-2,3.667094558E-2,1.964758709E-2
1.932322818E0,-6.193307787E-2,3.560594469E-2,4.307758436E-2
1.937374224E0,-7.258307934E-2,3.880094737E-2,6.011758745E-2
1.942425578E0,-7.471308112E-2,3.773594648E-2,6.863758713E-2
1.947460682E0,-7.364808023E-2,3.454094380E-2,7.609258592E-2
1.952512089E0,-6.619308144E-2,3.667094558E-2,7.502758503E-2
1.957563443E0,-5.021807924E-2,3.560594469E-2,6.650758535E-2
1.962614849E0,-3.104807809E-2,2.921594493E-2,5.585758761E-2
1.967666255E0,-1.294307783E-2,1.856594533E-2,4.201258719E-2
1.972717609E0,5.161922425E-3,8.980944753E-3,2.284258604E-2
1.977773286E0,2.646192163E-2,-3.799055237E-3,4.737586249E-3
1.982824693E0,3.817692026E-2,-1.231905539E-2,-3.782414133E-3
1.987876047E0,4.669691995E-2,-1.764405519E-2,-1.123741362E-2
1.992927453E0,5.308692157E-2,-2.616405487E-2,-1.336741354E-2
1.997978859E0,5.521691963E-2,-3.361905366E-2,-5.912413821E-3
2.003030214E0,5.415192246E-2,-3.894405812E-2,4.737586249E-3
2.008059380E0,5.308692157E-2,-4.107405245E-2,1.112758648E-2
2.013110734E0,4.989192262E-2,-3.574905545E-2,1.325758640E-2
2.018162141E0,4.456692189E-2,-3.042405657E-2,1.645258628E-2
2.023213495E0,3.924192116E-2,-2.296905592E-2,1.858258620E-2
2.028264901E0,3.285191953E-2,-2.722905576E-2,2.710258588E-2
2.033316255E0,2.539692074E-2,-3.361905366E-2,3.455758467E-2
2.038376828E0,2.220192179E-2,-4.000905156E-2,4.201258719E-2
2.043428234E0,2.539692074E-2,-4.213905334E-2,5.053258687E-2
2.048479589E0,2.752692252E-2,-3.574905545E-2,5.266258493E-2
2.053530995E0,3.711191937E-2,-2.829405479E-2,5.372758582E-2
2.058582349E0,5.095691979E-2,-2.722905576E-2,4.627258703E-2
2.063633755E0,6.267192215E-2,-3.148905188E-2,3.668758646E-2
2.068682870E0,7.332192361E-2,-3.681405634E-2,2.603758685E-2
2.073733703E0,8.610191941E-2,-4.426905513E-2,2.497258596E-2
2.078784484E0,1.031419188E-1,-4.959405214E-2,3.029758669E-2
2.083835266E0,1.180519238E-1,-5.278905481E-2,3.455758467E-2
2.088886047E0,1.350919157E-1,-5.598405749E-2,3.668758646E-2
2.093936828E0,1.468069255E-1,-6.130905449E-2,3.988258541E-2
2.098988339E0,1.585219204E-1,-6.556905061E-2,4.201258719E-2
2.104039172E0,1.670419276E-1,-6.769905239E-2,4.307758436E-2
2.109089901E0,1.681069285E-1,-6.556905061E-2,4.201258719E-2
2.114140734E0,1.659769267E-1,-6.130905449E-2,3.455758467E-2
2.119191516E0,1.542619169E-1,-5.704905838E-2,3.029758669E-2
2.124242297E0,1.393519193E-1,-4.639905691E-2,2.390758693E-2
2.129296359E0,1.212469190E-1,-3.574905545E-2,1.964758709E-2
2.134347141E0,1.042069197E-1,-1.870905422E-2,2.071258612E-2
2.139397922E0,8.929692209E-2,-2.734054811E-3,2.177758701E-2
2.144448755E0,7.438692451E-2,1.217594463E-2,2.177758701E-2
2.149499536E0,6.267192215E-2,2.495594509E-2,1.858258620E-2
2.154550318E0,5.308692157E-2,2.921594493E-2,1.325758640E-2
2.159596203E0,4.030692205E-2,3.347594291E-2,4.737586249E-3
2.164646984E0,3.072192147E-2,3.560594469E-2,-6.977413781E-3
2.169697766E0,2.007192373E-2,3.880094737E-2,-1.230241358E-2
2.174748547E0,1.155192219E-2,3.986594826E-2,-1.336741354E-2
2.179799328E0,4.096921999E-3,3.880094737E-2,-1.230241358E-2
2.184850109E0,-3.358077724E-3,3.560594469E-2,-5.912413821E-3
2.189897297E0,-7.618078031E-3,3.241094574E-2,-5.912413821E-3
2.194948078E0,-7.618078031E-3,2.495594509E-2,-8.042413741E-3
2.199998859E0,-4.423077684E-3,1.750094444E-2,-1.230241358E-2
2.205049589E0,-1.228077803E-3,8.980944753E-3,-9.107413702E-3
2.210100422E0,7.291921880E-3,-2.734054811E-3,-2.717413940E-3
2.215151203E0,1.794192195E-2,-1.018905547E-2,5.802586209E-3
2.220204849E0,2.859192342E-2,-1.764405519E-2,1.432258636E-2
2.225255630E0,4.456692189E-2,-2.829405479E-2,1.964758709E-2
2.230306411E0,5.521691963E-2,-4.107405245E-2,2.497258596E-2
2.235357193E0,6.586692482E-2,-5.811405182E-2,2.710258588E-2
2.240408026E0,7.225692272E-2,-6.237405539E-2,3.029758669E-2
2.245458807E0,7.971192151E-2,-5.065905303E-2,3.242758662E-2
2.250502089E0,8.716692030E-2,-2.935905568E-2,3.029758669E-2
2.255552922E0,8.716692030E-2,-8.059054613E-3,2.497258596E-2
2.260603651E0,8.503691852E-2,1.217594463E-2,1.858258620E-2
2.265654432E0,8.397191763E-2,3.880094737E-2,8.997586556E-3
2.270705266E0,7.758191973E-2,5.264594406E-2,4.775859998E-4
2.275755995E0,6.480192393E-2,6.116594374E-2,-3.782414133E-3
2.280795891E0,4.882692173E-2,6.223094463E-2,-4.847413860E-3
2.285846672E0,3.072192147E-2,5.797094852E-2,-4.847413860E-3
2.290897453E0,1.474692207E-2,5.690594763E-2,-5.874139606E-4
2.295948234E0,-1.228077803E-3,5.584094673E-2,4.737586249E-3
2.300999016E0,-1.400807779E-2,5.371094495E-2,1.006258652E-2
2.306049797E0,-2.039807662E-2,4.412594438E-2,1.538758632E-2
2.311096672E0,-2.572307736E-2,3.773594648E-2,1.645258628E-2
2.316147453E0,-3.104807809E-2,3.560594469E-2,1.219258644E-2
2.321198286E0,-3.424307704E-2,3.454094380E-2,6.867586169E-3
2.326249068E0,-3.743807971E-2,3.454094380E-2,4.775859998E-4
2.331299797E0,-4.063307866E-2,3.134594485E-2,-5.874139606E-4
2.336350578E0,-4.063307866E-2,3.347594291E-2,-2.717413940E-3
2.341399276E0,-3.956807777E-2,3.773594648E-2,-9.107413702E-3
2.346450057E0,-3.743807971E-2,3.560594469E-2,-1.230241358E-2
2.351500839E0,-3.317807987E-2,3.560594469E-2,-2.082241327E-2
2.356551620E0,-3.530807793E-2,3.773594648E-2,-2.721241303E-2
2.361602453E0,-3.637307882E-2,4.093094170E-2,-3.360241279E-2
2.366653234E0,-3.317807987E-2,3.986594826E-2,-3.679741547E-2
2.371725943E0,-2.891807631E-2,3.347594291E-2,-3.573241457E-2
2.376776724E0,-2.252807841E-2,2.495594509E-2,-3.040741384E-2
2.381827505E0,-1.826807857E-2,1.217594463E-2,-2.401741408E-2
2.386878286E0,-1.081307791E-2,-5.929054692E-3,-1.762741432E-2
2.391929068E0,-7.618078031E-3,-2.722905576E-2,-1.230241358E-2
2.396979849E0,-6.553078070E-3,-5.598405749E-2,-3.782414133E-3
2.402017141E0,-6.553078070E-3,-7.941405475E-2,2.607585862E-3
2.407067922E0,-3.358077724E-3,-9.325905144E-2,5.802586209E-3
2.412118703E0,-1.630779589E-4,-1.007140502E-1,1.112758648E-2
2.417169484E0,1.966922078E-3,-9.432405233E-2,1.219258644E-2
2.422220266E0,-1.630779589E-4,-8.047905564E-2,7.932586595E-3
2.427271099E0,-4.423077684E-3,-6.450404972E-2,3.672586055E-3
2.432320109E0,-8.683077991E-3,-4.852905869E-2,-3.782414133E-3
2.437370891E0,-1.187807787E-2,-3.148905188E-2,-9.107413702E-3
2.442421672E0,-1.826807857E-2,-2.190405503E-2,-1.123741362E-2
2.447472505E0,-2.252807841E-2,-1.551405527E-2,-9.107413702E-3
2.452523234E0,-2.359307930E-2,-1.231905539E-2,-3.782414133E-3
2.457574016E0,-2.465807647E-2,-8.059054613E-3,4.737586249E-3
2.462620422E0,-2.252807841E-2,-5.929054692E-3,1.006258652E-2
2.467671203E0,-1.826807857E-2,-6.994054653E-3,1.219258644E-2
2.472721984E0,-1.294307783E-2,-1.231905539E-2,1.751758531E-2
2.477772766E0,-8.683077991E-3,-2.935905568E-2,1.858258620E-2
2.482823547E0,-5.488078110E-3,-4.639905691E-2,2.071258612E-2
2.487874328E0,-3.358077724E-3,-6.130905449E-2,1.751758531E-2
2.492943182E0,-4.423077684E-3,-7.089405507E-2,1.325758640E-2
2.497993964E0,-1.187807787E-2,-7.728405297E-2,6.867586169E-3
2.503044745E0,-1.507307868E-2,-8.580405265E-2,4.737586249E-3
2.508095526E0,-1.720307767E-2,-9.538905323E-2,1.006258652E-2
2.513146307E0,-2.039807662E-2,-9.325905144E-2,1.112758648E-2
2.518197089E0,-2.252807841E-2,-8.260904998E-2,1.432258636E-2
2.523215370E0,-2.785307914E-2,-7.621905208E-2,1.858258620E-2
2.528266203E0,-3.317807987E-2,-7.302405685E-2,2.497258596E-2
2.533316984E0,-3.637307882E-2,-6.130905449E-2,2.923258580E-2
2.538367714E0,-4.169807956E-2,-4.320405424E-2,2.923258580E-2
2.543418547E0,-5.021807924E-2,-1.764405519E-2,2.923258580E-2
2.548469328E0,-5.447807908E-2,6.850944832E-3,3.136258572E-2
2.553521724E0,-6.299807876E-2,3.134594485E-2,2.816758677E-2
2.558572505E0,-6.832307577E-2,5.264594406E-2,3.029758669E-2
2.563623286E0,-7.577808201E-2,7.075094432E-2,3.349258751E-2
2.568674068E0,-8.110307902E-2,8.353094757E-2,3.775258735E-2
2.573724901E0,-8.429808170E-2,8.885594457E-2,3.881758451E-2
2.578775682E0,-8.855807781E-2,8.672595024E-2,3.775258735E-2
2.583846359E0,-9.388308227E-2,7.820595056E-2,3.455758467E-2
2.588897141E0,-9.281808138E-2,6.010094285E-2,2.710258588E-2
2.593947922E0,-9.068807960E-2,4.945094138E-2,1.964758709E-2
2.598998703E0,-8.642807603E-2,4.306094348E-2,8.997586556E-3
2.604049536E0,-7.790807635E-2,3.986594826E-2,-5.874139606E-4
2.609100266E0,-6.938807666E-2,3.560594469E-2,-8.042413741E-3
2.614136932E0,-5.767307803E-2,3.454094380E-2,-1.869241334E-2
2.619187714E0,-4.808807746E-2,3.028094582E-2,-2.934241295E-2
2.624238495E0,-4.169807956E-2,3.028094582E-2,-3.786241263E-2
2.629289276E0,-3.850308061E-2,3.667094558E-2,-4.212241247E-2
2.634340057E0,-3.530807793E-2,4.519094527E-2,-4.105741531E-2
2.639390839E0,-3.424307704E-2,6.223094463E-2,-3.253741562E-2
2.644445839E0,-3.530807793E-2,7.394594699E-2,-2.401741408E-2
2.649496620E0,-4.063307866E-2,7.607594877E-2,-1.656241342E-2
2.654547401E0,-4.489307851E-2,8.033594489E-2,-3.782414133E-3
2.659598182E0,-4.702308029E-2,8.033594489E-2,5.802586209E-3
2.664648964E0,-4.595807940E-2,8.459594846E-2,1.325758640E-2
2.669699745E0,-4.276308045E-2,9.205094725E-2,1.964758709E-2
2.674829380E0,-3.424307704E-2,8.885594457E-2,2.390758693E-2
2.679880161E0,-2.252807841E-2,8.140094578E-2,2.284258604E-2
2.684930943E0,-9.748077951E-3,7.607594877E-2,2.284258604E-2
2.689981724E0,8.356922306E-3,6.755594909E-2,1.964758709E-2
2.695032505E0,2.752692252E-2,6.010094285E-2,1.006258652E-2
2.700083339E0,4.776192084E-2,5.051594228E-2,2.607585862E-3
2.705024224E0,6.480192393E-2,3.773594648E-2,-6.977413781E-3
2.710075005E0,7.971192151E-2,2.602094412E-2,-1.549741346E-2
2.715125786E0,9.142692387E-2,7.915944792E-3,-2.188741416E-2
2.720176568E0,9.781692177E-2,-1.669054851E-3,-2.721241303E-2
2.725227349E0,9.994692355E-2,-4.864055198E-3,-3.040741384E-2
2.730278130E0,9.994692355E-2,-6.994054653E-3,-3.360241279E-2
2.735330214E0,9.781692177E-2,-8.059054613E-3,-3.253741562E-2
2.740380995E0,9.462191910E-2,-2.734054811E-3,-3.147241473E-2
2.745431776E0,8.397191763E-2,4.720944911E-3,-3.147241473E-2
2.750482557E0,7.119192183E-2,6.850944832E-3,-3.147241473E-2
2.755533339E0,5.521691963E-2,7.915944792E-3,-2.934241295E-2
2.760584120E0,3.924192116E-2,1.111094467E-2,-2.721241303E-2
2.765640370E0,2.752692252E-2,1.856594533E-2,-1.869241334E-2
2.770691151E0,2.433192357E-2,2.176094428E-2,-1.017241366E-2
2.775741932E0,3.178692237E-2,2.495594509E-2,-2.717413940E-3
2.780792714E0,4.350192100E-2,2.708594501E-2,4.775859998E-4
2.785843495E0,6.480192393E-2,2.708594501E-2,-3.782414133E-3
2.790894276E0,8.716692030E-2,2.708594501E-2,-1.443241350E-2
2.795939589E0,1.105969176E-1,2.602094412E-2,-2.188741416E-2
2.800990370E0,1.308319271E-1,2.282594517E-2,-2.721241303E-2
2.806041151E0,1.531969160E-1,2.176094428E-2,-3.040741384E-2
2.811091932E0,1.744969189E-1,2.602094412E-2,-3.147241473E-2
2.816142714E0,1.947319210E-1,3.667094558E-2,-3.786241263E-2
2.821193495E0,2.149669230E-1,5.158094317E-2,-4.851241410E-2
2.826249484E0,2.309419215E-1,6.436094642E-2,-5.809741467E-2
2.831300266E0,2.447869182E-1,6.968594342E-2,-6.661741436E-2
2.836351047E0,2.479819208E-1,6.649094820E-2,-7.087741047E-2
2.841401828E0,2.415919155E-1,6.010094285E-2,-6.874741614E-2
2.846452609E0,2.330719233E-1,4.838594794E-2,-5.916241556E-2
2.851503391E0,2.181619257E-1,3.667094558E-2,-4.318741336E-2
2.856566776E0,1.947319210E-1,2.495594509E-2,-2.934241295E-2
2.861617557E0,1.744969189E-1,5.785944872E-3,-1.549741346E-2
2.866668286E0,1.489369273E-1,-8.059054613E-3,-2.717413940E-3
2.871719068E0,1.255069226E-1,-2.083905414E-2,5.802586209E-3
2.876769901E0,9.675192088E-2,-2.829405479E-2,1.006258652E-2
2.881820682E0,7.012692094E-2,-3.468405455E-2,1.645258628E-2
2.886854276E0,4.137192294E-2,-3.255405277E-2,2.177758701E-2
2.891905057E0,1.581192203E-2,-2.935905568E-2,2.497258596E-2
2.896955839E0,-1.081307791E-2,-2.403405495E-2,2.390758693E-2
2.902006620E0,-3.211307898E-2,-1.657905430E-2,1.858258620E-2
2.907057401E0,-5.021807924E-2,-6.994054653E-3,7.932586595E-3
2.912108182E0,-6.512808055E-2,1.111094467E-2,-5.912413821E-3
2.917153703E0,-7.684307545E-2,3.454094380E-2,-1.869241334E-2
2.922204484E0,-8.536307514E-2,5.477594584E-2,-2.508241311E-2
2.927255266E0,-8.855807781E-2,6.862094998E-2,-3.360241279E-2
2.932306047E0,-8.962307870E-2,8.140094578E-2,-3.999241441E-2
2.937356828E0,-8.962307870E-2,9.418094903E-2,-4.425241426E-2
2.942407609E0,-8.323308080E-2,1.048309505E-1,-4.425241426E-2
2.947467505E0,-7.684307545E-2,1.069609448E-1,-4.212241247E-2
2.952518286E0,-6.832307577E-2,1.058959439E-1,-3.892741352E-2
2.957569016E0,-5.980307981E-2,1.027009487E-1,-3.573241457E-2
2.962619797E0,-5.234807730E-2,8.246594667E-2,-2.721241303E-2
2.967670578E0,-4.702308029E-2,5.477594584E-2,-1.656241342E-2
2.972721411E0,-4.169807956E-2,2.176094428E-2,-2.717413940E-3
2.977793807E0,-3.530807793E-2,-9.124054573E-3,8.997586556E-3
2.982844589E0,-2.572307736E-2,-3.681405634E-2,1.751758531E-2
2.987895370E0,-1.720307767E-2,-5.598405749E-2,2.071258612E-2
2.992946151E0,-3.358077724E-3,-6.663405150E-2,2.497258596E-2
2.997996932E0,1.048692223E-2,-7.408905029E-2,2.603758685E-2
3.003047714E0,2.433192357E-2,-7.621905208E-2,2.390758693E-2
3.008091828E0,3.817692026E-2,-7.408905029E-2,1.645258628E-2
3.013142609E0,4.882692173E-2,-5.917905271E-2,3.672586055E-3
3.018193391E0,5.415192246E-2,-3.681405634E-2,-8.042413741E-3
3.023244172E0,5.521691963E-2,-1.657905430E-2,-1.975741424E-2
3.028294953E0,5.415192246E-2,4.720944911E-3,-2.934241295E-2
3.033345786E0,5.095691979E-2,2.921594493E-2,-3.573241457E-2
3.038400057E0,4.669691995E-2,5.264594406E-2,-3.679741547E-2
3.043450891E0,4.456692189E-2,7.501094788E-2,-3.360241279E-2
3.048501620E0,4.030692205E-2,9.524594992E-2,-3.040741384E-2
3.053552401E0,3.817692026E-2,1.112209484E-1,-2.614741400E-2
3.058603234E0,3.924192116E-2,1.165459454E-1,-2.188741416E-2
3.063654016E0,3.924192116E-2,1.090909466E-1,-1.549741346E-2
3.068690005E0,4.030692205E-2,8.459594846E-2,-9.107413702E-3
3.073740630E0,4.776192084E-2,5.690594763E-2,-4.847413860E-3
3.078791203E0,5.521691963E-2,2.389094420E-2,-2.717413940E-3
3.083841828E0,6.054192036E-2,-4.864055198E-3,4.775859998E-4
3.088892401E0,7.225692272E-2,-3.148905188E-2,5.802586209E-3
3.093943026E0,8.290692419E-2,-4.959405214E-2,8.997586556E-3
3.099016151E0,9.568691999E-2,-5.598405749E-2,1.325758640E-2
3.104066724E0,1.031419188E-1,-5.385405570E-2,1.006258652E-2
3.109117297E0,1.084669232E-1,-4.746405780E-2,5.802586209E-3
3.114167922E0,1.084669232E-1,-3.361905366E-2,1.542586018E-3
3.119218495E0,1.052719206E-1,-1.444905438E-2,-5.912413821E-3
3.124269120E0,9.994692355E-2,8.980944753E-3,-1.230241358E-2
3.129321932E0,8.929692209E-2,2.921594493E-2,-1.975741424E-2
3.134372505E0,8.077692240E-2,4.306094348E-2,-2.188741416E-2
3.139423078E0,6.267192215E-2,5.903594196E-2,-2.401741408E-2
3.144473703E0,4.456692189E-2,6.116594374E-2,-2.614741400E-2
3.149524224E0,2.859192342E-2,5.797094852E-2,-2.401741408E-2
3.154574849E0,1.474692207E-2,4.945094138E-2,-2.188741416E-2
3.159628547E0,4.096921999E-3,3.134594485E-2,-2.295241319E-2
3.164679120E0,-7.618078031E-3,1.430594455E-2,-2.401741408E-2
3.169729693E0,-1.507307868E-2,-2.734054811E-3,-2.401741408E-2
3.174780318E0,-2.146307752E-2,-1.657905430E-2,-2.614741400E-2
3.179830891E0,-2.465807647E-2,-2.829405479E-2,-2.508241311E-2
3.184881464E0,-2.785307914E-2,-3.681405634E-2,-1.975741424E-2
3.189915839E0,-3.317807987E-2,-3.894405812E-2,-1.762741432E-2
3.194966464E0,-3.850308061E-2,-3.361905366E-2,-1.656241342E-2
3.200017036E0,-4.169807956E-2,-2.616405487E-2,-1.975741424E-2
3.205067661E0,-4.595807940E-2,-1.764405519E-2,-2.614741400E-2
3.210118234E0,-4.702308029E-2,-1.018905547E-2,-3.360241279E-2
3.215168807E0,-5.341307819E-2,4.609450698E-4,-3.679741547E-2
3.220237505E0,-5.767307803E-2,1.324094459E-2,-4.105741531E-2
3.225288078E0,-6.086808071E-2,2.602094412E-2,-4.212241247E-2
3.230338651E0,-6.086808071E-2,3.347594291E-2,-4.105741531E-2
3.235389276E0,-5.980307981E-2,4.412594438E-2,-4.105741531E-2
3.240439849E0,-5.554307997E-2,4.732094705E-2,-4.105741531E-2
3.245490474E0,-4.915307835E-2,4.199594259E-2,-4.425241426E-2
3.250529068E0,-4.063307866E-2,3.986594826E-2,-4.851241410E-2
3.255579641E0,-3.211307898E-2,3.560594469E-2,-4.851241410E-2
3.260630214E0,-2.252807841E-2,2.389094420E-2,-4.531741515E-2
3.265680839E0,-1.720307767E-2,3.655944951E-3,-4.212241247E-2
3.270731411E0,-1.400807779E-2,-1.870905422E-2,-3.253741562E-2
3.275782036E0,-6.553078070E-3,-3.574905545E-2,-2.188741416E-2
3.280809536E0,-7.618078031E-3,-5.172405392E-2,-1.017241366E-2
3.285860161E0,-8.683077991E-3,-6.130905449E-2,4.775859998E-4
3.290910734E0,-1.081307791E-2,-6.024405360E-2,7.932586595E-3
3.295961307E0,-1.187807787E-2,-5.172405392E-2,2.177758701E-2
3.301011880E0,-1.400807779E-2,-4.320405424E-2,3.136258572E-2
3.306062453E0,-1.507307868E-2,-4.000905156E-2,4.414258525E-2
3.311141411E0,-1.294307783E-2,-3.681405634E-2,5.372758582E-2
3.316191984E0,-1.294307783E-2,-3.148905188E-2,6.011758745E-2
3.321242609E0,-7.618078031E-3,-1.977405511E-2,6.650758535E-2
3.326293182E0,-1.630779589E-4,-9.124054573E-3,6.863758713E-2
3.331343755E0,1.048692223E-2,-5.929054692E-3,6.970258802E-2
3.336394380E0,2.220192179E-2,5.785944872E-3,6.863758713E-2
3.341449276E0,3.072192147E-2,1.643594541E-2,6.650758535E-2
3.346499849E0,4.030692205E-2,2.389094420E-2,6.224758551E-2
3.351550474E0,4.882692173E-2,1.750094444E-2,6.224758551E-2
3.356601047E0,5.628192052E-2,3.655944951E-3,6.118258461E-2
3.361651620E0,6.267192215E-2,-1.125405543E-2,6.118258461E-2
3.366702193E0,6.586692482E-2,-3.255405277E-2,6.118258461E-2
3.371736151E0,6.906192005E-2,-5.491905659E-2,6.118258461E-2
3.376786724E0,7.119192183E-2,-7.515405118E-2,6.224758551E-2
3.381837349E0,7.225692272E-2,-9.325905144E-2,6.437758356E-2
3.386887922E0,7.225692272E-2,-1.049740538E-1,6.331258267E-2
3.391938495E0,7.225692272E-2,-1.049740538E-1,6.224758551E-2
3.396989120E0,6.586692482E-2,-1.028440520E-1,5.905258656E-2
3.402029172E0,5.521691963E-2,-9.964905679E-2,5.585758761E-2
3.407079797E0,4.350192100E-2,-9.219405055E-2,5.266258493E-2
3.412130370E0,2.965692058E-2,-7.728405297E-2,5.053258687E-2
3.417180943E0,1.581192203E-2,-5.917905271E-2,4.946758598E-2
3.422231568E0,8.356922306E-3,-4.213905334E-2,4.733758792E-2
3.427282141E0,1.966922078E-3,-2.935905568E-2,4.414258525E-2
3.432353859E0,-5.488078110E-3,-1.657905430E-2,3.775258735E-2
3.437404432E0,-7.618078031E-3,-5.929054692E-3,3.455758467E-2
3.442455057E0,-1.081307791E-2,4.720944911E-3,3.136258572E-2
3.447505630E0,-1.294307783E-2,6.850944832E-3,3.136258572E-2
3.452556203E0,-1.400807779E-2,3.655944951E-3,3.242758662E-2
3.457606828E0,-1.187807787E-2,4.609450698E-4,3.242758662E-2
3.462644172E0,-2.293077996E-3,-1.125405543E-2,3.242758662E-2
3.467694797E0,6.226921920E-3,-2.403405495E-2,3.562258556E-2
3.472745370E0,1.581192203E-2,-3.681405634E-2,3.562258556E-2
3.477795943E0,2.752692252E-2,-4.320405424E-2,3.455758467E-2
3.482846568E0,4.243692011E-2,-5.065905303E-2,3.668758646E-2
3.487897141E0,5.308692157E-2,-6.024405360E-2,3.562258556E-2
3.492944276E0,5.734692141E-2,-6.876405329E-2,3.136258572E-2
3.497994849E0,5.947691947E-2,-6.982905418E-2,2.710258588E-2
3.503045474E0,5.734692141E-2,-6.237405539E-2,1.858258620E-2
3.508096047E0,4.776192084E-2,-5.385405570E-2,1.432258636E-2
3.513146620E0,3.924192116E-2,-3.787905723E-2,1.432258636E-2
3.518197245E0,2.433192357E-2,-2.616405487E-2,1.325758640E-2
3.523243755E0,1.155192219E-2,-1.764405519E-2,1.538758632E-2
3.528294328E0,-1.630779589E-4,-4.864055198E-3,1.538758632E-2
3.533344953E0,-1.294307783E-2,6.850944832E-3,1.006258652E-2
3.538395526E0,-2.252807841E-2,1.537094545E-2,7.932586595E-3
3.543446099E0,-3.104807809E-2,2.602094412E-2,6.867586169E-3
3.548496724E0,-3.743807971E-2,2.389094420E-2,2.607585862E-3
3.553583911E0,-4.382807761E-2,1.750094444E-2,2.607585862E-3
3.558634484E0,-4.276308045E-2,1.111094467E-2,6.867586169E-3
3.563685057E0,-4.276308045E-2,7.915944792E-3,7.932586595E-3
3.568735682E0,-3.956807777E-2,4.609450698E-4,7.932586595E-3
3.573786307E0,-3.530807793E-2,-5.929054692E-3,7.932586595E-3
3.578836880E0,-2.678807825E-2,-1.764405519E-2,7.932586595E-3
3.583851411E0,-1.826807857E-2,-2.403405495E-2,3.672586055E-3
3.588902036E0,-8.683077991E-3,-3.255405277E-2,2.607585862E-3
3.593952609E0,1.966922078E-3,-3.468405455E-2,2.607585862E-3
3.599003182E0,1.155192219E-2,-4.213905334E-2,2.607585862E-3
3.604053807E0,1.900692284E-2,-4.959405214E-2,-1.652413979E-3
3.609104380E0,2.326692268E-2,-5.385405570E-2,-5.912413821E-3
3.614157297E0,2.859192342E-2,-5.704905838E-2,-1.017241366E-2
3.619207922E0,3.178692237E-2,-5.704905838E-2,-1.123741362E-2
3.624258495E0,3.391692042E-2,-5.278905481E-2,-1.123741362E-2
3.629309120E0,3.817692026E-2,-4.320405424E-2,-1.123741362E-2
3.634359693E0,3.498192132E-2,-2.829405479E-2,-6.977413781E-3
3.639410266E0,3.285191953E-2,-1.338405535E-2,-5.912413821E-3
3.644459068E0,2.859192342E-2,3.655944951E-3,-2.717413940E-3
3.649509693E0,2.220192179E-2,2.069594525E-2,-5.874139606E-4
3.654560266E0,1.687692106E-2,3.347594291E-2,4.775859998E-4
3.659610891E0,6.226921920E-3,4.625594616E-2,2.607585862E-3
3.664661464E0,-2.293077996E-3,5.797094852E-2,5.802586209E-3
3.669712036E0,-6.553078070E-3,6.329594553E-2,1.112758648E-2
3.674773859E0,-6.553078070E-3,7.181594521E-2,1.538758632E-2
3.679824484E0,-2.293077996E-3,7.501094788E-2,2.177758701E-2
3.684875057E0,9.019220597E-4,6.968594342E-2,2.710258588E-2
3.689925630E0,8.356922306E-3,6.116594374E-2,3.029758669E-2
3.694976203E0,1.794192195E-2,4.945094138E-2,3.136258572E-2
3.700026828E0,2.752692252E-2,2.921594493E-2,3.242758662E-2
3.705076307E0,3.711191937E-2,1.111094467E-2,2.816758677E-2
3.710126932E0,4.030692205E-2,-3.799055237E-3,2.284258604E-2
3.715177505E0,4.243692011E-2,-1.018905547E-2,1.538758632E-2
3.720228078E0,4.563192278E-2,-2.083905414E-2,1.006258652E-2
3.725278651E0,4.563192278E-2,-3.574905545E-2,4.737586249E-3
3.730329276E0,4.030692205E-2,-4.852905869E-2,4.775859998E-4
3.735380370E0,3.498192132E-2,-6.556905061E-2,-9.107413702E-3
3.740430995E0,2.646192163E-2,-6.982905418E-2,-1.762741432E-2
3.745481568E0,1.794192195E-2,-6.769905239E-2,-2.508241311E-2
3.750532141E0,8.356922306E-3,-6.450404972E-2,-3.147241473E-2
3.755582766E0,-1.630779589E-4,-5.811405182E-2,-2.934241295E-2
3.760633339E0,-9.748077951E-3,-4.746405780E-2,-2.401741408E-2
3.765670578E0,-2.039807662E-2,-3.255405277E-2,-2.188741416E-2
3.770721203E0,-3.104807809E-2,-1.231905539E-2,-1.762741432E-2
3.775771776E0,-4.169807956E-2,5.785944872E-3,-1.869241334E-2
3.780822349E0,-4.808807746E-2,1.643594541E-2,-1.762741432E-2
3.785872922E0,-5.554307997E-2,2.282594517E-2,-1.762741432E-2
3.790923495E0,-5.554307997E-2,2.495594509E-2,-1.869241334E-2
3.795986099E0,-5.341307819E-2,2.815094590E-2,-1.975741424E-2
3.801036724E0,-4.915307835E-2,2.815094590E-2,-1.549741346E-2
3.806087297E0,-4.276308045E-2,2.389094420E-2,-1.443241350E-2
3.811137922E0,-3.317807987E-2,1.430594455E-2,-1.656241342E-2
3.816188495E0,-2.785307914E-2,4.720944911E-3,-2.295241319E-2
3.821239068E0,-2.359307930E-2,-1.669054851E-3,-3.040741384E-2
3.826259745E0,-1.613807678E-2,-1.018905547E-2,-3.360241279E-2
3.831310318E0,-1.294307783E-2,-1.231905539E-2,-3.573241457E-2
3.836360943E0,-1.081307791E-2,-1.231905539E-2,-3.786241263E-2
3.841411516E0,-1.400807779E-2,-1.870905422E-2,-4.105741531E-2
3.846462089E0,-1.613807678E-2,-2.083905414E-2,-4.638241231E-2
3.851512714E0,-1.826807857E-2,-2.190405503E-2,-4.425241426E-2
3.856595318E0,-2.252807841E-2,-1.870905422E-2,-3.892741352E-2
3.861645891E0,-2.359307930E-2,-9.124054573E-3,-3.147241473E-2
3.866696464E0,-2.785307914E-2,-6.040551234E-4,-2.082241327E-2
3.871747089E0,-2.891807631E-2,1.525945030E-3,-1.017241366E-2
3.876797714E0,-2.891807631E-2,2.590944991E-3,-3.782414133E-3
3.881848286E0,-2.891807631E-2,3.655944951E-3,4.775859998E-4
3.886889745E0,-2.678807825E-2,2.590944991E-3,2.607585862E-3
3.891940318E0,-2.252807841E-2,3.655944951E-3,6.867586169E-3
3.896990891E0,-1.613807678E-2,6.850944832E-3,1.219258644E-2
3.902041516E0,-6.553078070E-3,1.324094459E-2,1.751758531E-2
3.907092089E0,3.031922039E-3,1.111094467E-2,2.071258612E-2
3.912142661E0,1.048692223E-2,6.850944832E-3,2.177758701E-2
3.917196932E0,1.474692207E-2,4.609450698E-4,2.071258612E-2
3.922247505E0,1.794192195E-2,-6.994054653E-3,1.432258636E-2
3.927298078E0,2.007192373E-2,-1.338405535E-2,8.997586556E-3
3.932348651E0,2.433192357E-2,-1.657905430E-2,1.006258652E-2
3.937399276E0,2.646192163E-2,-2.616405487E-2,7.932586595E-3
3.942449849E0,2.646192163E-2,-3.042405657E-2,5.802586209E-3
3.947495474E0,2.539692074E-2,-3.574905545E-2,6.867586169E-3
3.952546099E0,2.220192179E-2,-4.320405424E-2,2.607585862E-3
3.957596672E0,1.581192203E-2,-4.533405602E-2,4.775859998E-4
3.962647245E0,1.048692223E-2,-4.000905156E-2,-2.717413940E-3
3.967697870E0,-1.630779589E-4,-3.361905366E-2,-8.042413741E-3
3.972748443E0,-7.618078031E-3,-2.403405495E-2,-6.977413781E-3
3.977801359E0,-1.613807678E-2,-1.444905438E-2,-2.717413940E-3
3.982851932E0,-2.678807825E-2,-1.669054851E-3,4.737586249E-3
3.987902557E0,-3.211307898E-2,5.785944872E-3,1.112758648E-2
3.992953130E0,-3.317807987E-2,7.915944792E-3,1.432258636E-2
3.998003755E0,-3.530807793E-2,-6.040551234E-4,1.538758632E-2
4.003054328E0,-3.211307898E-2,-6.994054653E-3,1.325758640E-2
4.008132505E0,-2.785307914E-2,-8.059054613E-3,1.006258652E-2
4.013183078E0,-2.359307930E-2,-8.059054613E-3,8.997586556E-3
4.018233703E0,-1.294307783E-2,-6.994054653E-3,4.737586249E-3
4.023284276E0,-7.618078031E-3,-5.929054692E-3,5.802586209E-3
4.028334901E0,9.019220597E-4,-1.018905547E-2,4.737586249E-3
4.033385474E0,1.155192219E-2,-1.657905430E-2,4.737586249E-3
4.038413911E0,1.900692284E-2,-2.935905568E-2,1.542586018E-3
4.043464536E0,2.539692074E-2,-3.574905545E-2,-5.874139606E-4
4.048515109E0,2.539692074E-2,-3.574905545E-2,-2.717413940E-3
4.053565682E0,2.326692268E-2,-2.616405487E-2,-4.847413860E-3
4.058616307E0,2.007192373E-2,-1.338405535E-2,1.542586018E-3
4.063666880E0,1.261692215E-2,-5.929054692E-3,5.802586209E-3
4.068751932E0,9.019220597E-4,-6.040551234E-4,6.867586169E-3
4.073802661E0,-1.294307783E-2,6.850944832E-3,7.932586595E-3
4.078853443E0,-2.572307736E-2,1.537094545E-2,1.112758648E-2
4.083904224E0,-3.637307882E-2,1.856594533E-2,1.432258636E-2
4.088955005E0,-4.169807956E-2,1.643594541E-2,1.538758632E-2
4.094005734E0,-4.595807940E-2,1.856594533E-2,1.645258628E-2
4.099030266E0,-5.234807730E-2,2.176094428E-2,1.538758632E-2
4.104081047E0,-5.660807714E-2,2.176094428E-2,1.751758531E-2
4.109131828E0,-5.660807714E-2,2.815094590E-2,1.645258628E-2
4.114182557E0,-5.234807730E-2,3.986594826E-2,1.325758640E-2
4.119233339E0,-4.702308029E-2,4.519094527E-2,6.867586169E-3
4.124284120E0,-4.063307866E-2,4.945094138E-2,2.607585862E-3
4.129324276E0,-3.104807809E-2,4.945094138E-2,-1.652413979E-3
4.134375057E0,-1.826807857E-2,4.732094705E-2,-2.717413940E-3
4.139425839E0,-7.618078031E-3,3.880094737E-2,-1.652413979E-3
4.144476620E0,3.031922039E-3,2.815094590E-2,-1.652413979E-3
4.149527401E0,8.356922306E-3,1.750094444E-2,4.775859998E-4
4.154578130E0,9.421922266E-3,4.720944911E-3,3.672586055E-3
4.159626099E0,8.356922306E-3,-6.040551234E-4,6.867586169E-3
4.164676880E0,9.019220597E-4,1.525945030E-3,4.737586249E-3
4.169727661E0,-6.553078070E-3,6.850944832E-3,6.867586169E-3
4.174778443E0,-1.613807678E-2,1.643594541E-2,1.006258652E-2
4.179829172E0,-2.998307720E-2,2.921594493E-2,1.432258636E-2
4.184879953E0,-3.850308061E-2,3.134594485E-2,1.751758531E-2
4.189995057E0,-4.702308029E-2,3.241094574E-2,1.858258620E-2
4.195045839E0,-5.980307981E-2,2.708594501E-2,1.751758531E-2
4.200096568E0,-6.619308144E-2,2.389094420E-2,1.432258636E-2
4.205147349E0,-7.258307934E-2,2.069594525E-2,1.112758648E-2
4.210198130E0,-7.684307545E-2,1.537094545E-2,6.867586169E-3
4.215248911E0,-7.790807635E-2,1.217594463E-2,-1.652413979E-3
4.220238859E0,-7.790807635E-2,6.850944832E-3,-1.017241366E-2
4.225289641E0,-7.258307934E-2,-6.040551234E-4,-2.082241327E-2
4.230340422E0,-6.938807666E-2,-6.040551234E-4,-2.827741392E-2
4.235391151E0,-6.406307966E-2,4.609450698E-4,-3.466741368E-2
4.240441932E0,-5.660807714E-2,-6.040551234E-4,-3.892741352E-2
4.245492714E0,-4.915307835E-2,-1.669054851E-3,-4.105741531E-2
4.250548130E0,-3.956807777E-2,-6.040551234E-4,-3.466741368E-2
4.255598911E0,-3.424307704E-2,4.720944911E-3,-3.040741384E-2
4.260649641E0,-3.317807987E-2,4.720944911E-3,-2.508241311E-2
4.265700422E0,-2.785307914E-2,5.785944872E-3,-1.549741346E-2
4.270751255E0,-2.146307752E-2,1.004594564E-2,-5.912413821E-3
4.275801984E0,-1.081307791E-2,1.217594463E-2,6.867586169E-3
4.280852141E0,-1.228077803E-3,1.111094467E-2,1.538758632E-2
4.285902922E0,5.161922425E-3,1.430594455E-2,2.071258612E-2
4.290953651E0,1.474692207E-2,1.324094459E-2,2.603758685E-2
4.296004432E0,2.539692074E-2,8.980944753E-3,3.029758669E-2
4.301055214E0,3.285191953E-2,7.915944792E-3,3.455758467E-2
4.306105995E0,4.030692205E-2,7.915944792E-3,3.562258556E-2
4.311172818E0,4.989192262E-2,8.980944753E-3,3.881758451E-2
4.316223599E0,5.947691947E-2,1.111094467E-2,4.094758630E-2
4.321274328E0,6.799691916E-2,3.655944951E-3,3.881758451E-2
4.326325109E0,7.332192361E-2,1.525945030E-3,3.562258556E-2
4.331375891E0,7.651691884E-2,-6.040551234E-4,3.242758662E-2
4.336426672E0,7.651691884E-2,-5.929054692E-3,2.497258596E-2
4.341449224E0,7.545191795E-2,-1.338405535E-2,2.284258604E-2
4.346500005E0,6.906192005E-2,-2.083905414E-2,1.964758709E-2
4.351550786E0,6.054192036E-2,-2.296905592E-2,1.645258628E-2
4.356601568E0,5.415192246E-2,-2.190405503E-2,1.432258636E-2
4.361652297E0,4.350192100E-2,-1.657905430E-2,8.997586556E-3
4.366703130E0,3.391692042E-2,-1.018905547E-2,3.672586055E-3
4.371769745E0,2.539692074E-2,-4.864055198E-3,4.775859998E-4
4.376820474E0,1.900692284E-2,-6.040551234E-4,4.775859998E-4
4.381871255E0,1.368192211E-2,-6.040551234E-4,1.542586018E-3
4.386922036E0,9.421922266E-3,1.525945030E-3,2.607585862E-3
4.391972818E0,7.291921880E-3,4.720944911E-3,3.672586055E-3
4.397023599E0,9.421922266E-3,6.850944832E-3,5.802586209E-3
4.402074901E0,1.261692215E-2,6.850944832E-3,8.997586556E-3
4.407125682E0,1.794192195E-2,6.850944832E-3,1.006258652E-2
4.412176411E0,2.007192373E-2,4.609450698E-4,1.006258652E-2
4.417227193E0,2.326692268E-2,-2.734054811E-3,7.932586595E-3
4.422277974E0,2.646192163E-2,-2.734054811E-3,6.867586169E-3
4.427328755E0,3.072192147E-2,-3.799055237E-3,4.737586249E-3
4.432383391E0,3.391692042E-2,-4.864055198E-3,3.672586055E-3
4.437434172E0,3.711191937E-2,-8.059054613E-3,4.737586249E-3
4.442484901E0,4.030692205E-2,-1.338405535E-2,-5.874139606E-4
4.447535682E0,3.604692221E-2,-1.444905438E-2,-5.912413821E-3
4.452586464E0,3.498192132E-2,-1.551405527E-2,-1.230241358E-2
4.457637245E0,3.285191953E-2,-1.444905438E-2,-1.656241342E-2
4.462672661E0,3.178692237E-2,-1.338405535E-2,-1.975741424E-2
4.467723443E0,3.178692237E-2,-1.231905539E-2,-2.082241327E-2
4.472774224E0,3.072192147E-2,-1.231905539E-2,-2.508241311E-2
4.477824953E0,3.178692237E-2,-1.125405543E-2,-3.040741384E-2
4.482875734E0,2.859192342E-2,-8.059054613E-3,-3.786241263E-2
4.487926516E0,2.646192163E-2,4.609450698E-4,-4.105741531E-2
4.492978599E0,2.433192357E-2,6.850944832E-3,-4.105741531E-2
4.498029380E0,1.900692284E-2,1.217594463E-2,-4.212241247E-2
4.503080161E0,1.368192211E-2,1.750094444E-2,-3.253741562E-2
4.508130943E0,1.048692223E-2,2.069594525E-2,-2.188741416E-2
4.513181672E0,3.031922039E-3,2.921594493E-2,-1.230241358E-2
4.518232453E0,3.031922039E-3,3.241094574E-2,-8.042413741E-3
4.523278911E0,5.161922425E-3,3.454094380E-2,-1.652413979E-3
4.528329693E0,7.291921880E-3,3.773594648E-2,-1.652413979E-3
4.533380474E0,9.421922266E-3,3.667094558E-2,-5.874139606E-4
4.538431255E0,1.474692207E-2,3.560594469E-2,-1.652413979E-3
4.543481984E0,1.900692284E-2,2.176094428E-2,-1.652413979E-3
4.548532766E0,2.433192357E-2,8.980944753E-3,4.775859998E-4
4.553590266E0,3.178692237E-2,-3.799055237E-3,1.542586018E-3
4.558641047E0,3.391692042E-2,-1.870905422E-2,-3.782414133E-3
4.563691776E0,3.498192132E-2,-2.722905576E-2,-9.107413702E-3
4.568742557E0,3.391692042E-2,-2.935905568E-2,-1.123741362E-2
4.573793339E0,3.498192132E-2,-3.148905188E-2,-1.549741346E-2
4.578844120E0,3.285191953E-2,-2.829405479E-2,-1.869241334E-2
4.583903964E0,3.178692237E-2,-2.403405495E-2,-2.082241327E-2
4.588954745E0,3.178692237E-2,-2.296905592E-2,-2.188741416E-2
4.594005526E0,2.859192342E-2,-1.657905430E-2,-2.188741416E-2
4.599056255E0,2.646192163E-2,-5.929054692E-3,-2.082241327E-2
4.604107089E0,2.220192179E-2,2.590944991E-3,-2.082241327E-2
4.609157818E0,1.474692207E-2,3.655944951E-3,-2.295241319E-2
4.614188339E0,1.048692223E-2,1.111094467E-2,-1.762741432E-2
4.619239120E0,7.291921880E-3,1.750094444E-2,-1.230241358E-2
4.624289901E0,5.161922425E-3,2.282594517E-2,-5.912413821E-3
4.629340682E0,6.226921920E-3,2.815094590E-2,4.775859998E-4
4.634391411E0,5.161922425E-3,2.921594493E-2,4.737586249E-3
4.639442193E0,4.096921999E-3,2.602094412E-2,8.997586556E-3
4.644494224E0,4.096921999E-3,2.389094420E-2,1.219258644E-2
4.649545005E0,1.966922078E-3,2.176094428E-2,8.997586556E-3
4.654595734E0,-2.293077996E-3,1.856594533E-2,3.672586055E-3
4.659646516E0,-3.358077724E-3,1.963094436E-2,-2.717413940E-3
4.664697297E0,-9.748077951E-3,2.069594525E-2,-1.230241358E-2
4.669748078E0,-1.507307868E-2,1.537094545E-2,-2.188741416E-2
4.674840526E0,-2.039807662E-2,7.915944792E-3,-2.934241295E-2
4.679891307E0,-2.678807825E-2,2.590944991E-3,-3.573241457E-2
4.684942089E0,-3.424307704E-2,1.525945030E-3,-4.105741531E-2
4.689992818E0,-3.850308061E-2,-6.040551234E-4,-4.425241426E-2
4.695043599E0,-3.850308061E-2,-6.040551234E-4,-3.892741352E-2
4.700094380E0,-3.424307704E-2,-1.669054851E-3,-3.040741384E-2
4.705093703E0,-2.359307930E-2,-5.929054692E-3,-2.295241319E-2
4.710144484E0,-8.683077991E-3,-1.018905547E-2,-1.549741346E-2
4.715195266E0,5.161922425E-3,-1.125405543E-2,-6.977413781E-3
4.720246047E0,2.433192357E-2,-1.125405543E-2,-4.847413860E-3
4.725296828E0,3.817692026E-2,-1.018905547E-2,-5.874139606E-4
4.730347557E0,4.456692189E-2,-8.059054613E-3,1.542586018E-3
4.735411359E0,5.095691979E-2,-1.125405543E-2,4.737586249E-3
4.740462141E0,5.628192052E-2,-1.018905547E-2,7.932586595E-3
4.745512870E0,5.841192231E-2,-9.124054573E-3,1.006258652E-2
4.750563703E0,6.054192036E-2,-1.231905539E-2,6.867586169E-3
4.755614432E0,5.308692157E-2,-1.018905547E-2,2.607585862E-3
4.760665214E0,4.563192278E-2,-1.444905438E-2,-8.042413741E-3
4.765707401E0,3.178692237E-2,-1.764405519E-2,-1.975741424E-2
4.770758182E0,1.581192203E-2,-1.870905422E-2,-2.827741392E-2
4.775808964E0,-1.228077803E-3,-1.764405519E-2,-3.360241279E-2
4.780859745E0,-1.613807678E-2,-1.125405543E-2,-4.105741531E-2
4.785887453E0,-3.211307898E-2,-6.994054653E-3,-4.851241410E-2
4.790923807E0,-4.595807940E-2,-3.799055237E-3,-5.383741483E-2
4.795974589E0,-5.554307997E-2,2.590944991E-3,-5.809741467E-2
4.801061880E0,-6.512808055E-2,1.537094545E-2,-5.490241200E-2
4.806112609E0,-6.512808055E-2,2.602094412E-2,-5.170741305E-2
4.811166776E0,-5.873807892E-2,3.560594469E-2,-4.318741336E-2
4.816217505E0,-4.808807746E-2,4.199594259E-2,-3.360241279E-2
4.821239380E0,-3.637307882E-2,4.093094170E-2,-2.614741400E-2
4.826290057E0,-2.039807662E-2,3.454094380E-2,-1.656241342E-2
4.831378339E0,-5.488078110E-3,2.282594517E-2,-1.017241366E-2
4.836429120E0,1.048692223E-2,1.217594463E-2,-3.782414133E-3
4.841465578E0,2.965692058E-2,2.590944991E-3,-5.874139606E-4
4.846516255E0,4.350192100E-2,-6.040551234E-4,-5.874139606E-4
4.851567036E0,5.734692141E-2,-9.124054573E-3,-5.874139606E-4
4.856617818E0,6.693191826E-2,-1.977405511E-2,-5.874139606E-4
4.861668547E0,7.225692272E-2,-2.403405495E-2,4.775859998E-4
4.866719380E0,7.225692272E-2,-2.722905576E-2,-5.874139606E-4
4.871765943E0,7.119192183E-2,-2.935905568E-2,-5.912413821E-3
4.876816672E0,6.267192215E-2,-2.829405479E-2,-1.123741362E-2
4.881867453E0,5.308692157E-2,-2.403405495E-2,-1.336741354E-2
4.886887245E0,3.924192116E-2,-2.083905414E-2,-1.869241334E-2
4.891938026E0,2.752692252E-2,-1.338405535E-2,-2.508241311E-2
4.897017870E0,1.261692215E-2,-6.040551234E-4,-2.721241303E-2
4.902037505E0,-3.358077724E-3,8.980944753E-3,-3.040741384E-2
4.907088286E0,-1.933307946E-2,1.111094467E-2,-3.253741562E-2
4.912169849E0,-3.317807987E-2,1.004594564E-2,-3.040741384E-2
4.917203651E0,-4.489307851E-2,1.004594564E-2,-2.721241303E-2
4.922254380E0,-5.128308013E-2,1.111094467E-2,-2.401741408E-2
4.927305161E0,-5.447807908E-2,1.430594455E-2,-2.188741416E-2
4.932355943E0,-5.554307997E-2,1.111094467E-2,-2.295241319E-2
4.937406672E0,-5.234807730E-2,1.111094467E-2,-2.295241319E-2
4.942457453E0,-4.915307835E-2,7.915944792E-3,-2.295241319E-2
4.947508234E0,-4.169807956E-2,2.590944991E-3,-2.295241319E-2
4.952577974E0,-3.743807971E-2,-2.734054811E-3,-2.401741408E-2
4.957628703E0,-3.424307704E-2,-3.799055237E-3,-2.188741416E-2
4.962679484E0,-3.211307898E-2,2.590944991E-3,-1.975741424E-2
4.967730214E0,-3.317807987E-2,1.525945030E-3,-1.336741354E-2
4.972780995E0,-3.530807793E-2,4.609450698E-4,-4.847413860E-3
4.977831776E0,-3.317807987E-2,6.850944832E-3,4.737586249E-3
4.982882766E0,-3.211307898E-2,8.980944753E-3,3.672586055E-3
4.987933495E0,-3.104807809E-2,1.324094459E-2,1.542586018E-3
4.992984276E0,-2.359307930E-2,2.069594525E-2,-2.717413940E-3
4.998035057E0,-1.613807678E-2,2.176094428E-2,-2.717413940E-3
5.003085839E0,-8.683077991E-3,1.856594533E-2,-2.717413940E-3
5.008136620E0,-1.630779589E-4,1.004594564E-2,1.542586018E-3
5.013178703E0,5.161922425E-3,8.980944753E-3,2.607585862E-3
5.018229484E0,1.368192211E-2,1.004594564E-2,7.932586595E-3
5.023280266E0,1.794192195E-2,6.850944832E-3,1.219258644E-2
5.028330995E0,2.007192373E-2,8.980944753E-3,1.432258636E-2
5.033381776E0,2.752692252E-2,6.850944832E-3,1.538758632E-2
5.038432505E0,3.072192147E-2,3.655944951E-3,1.432258636E-2
5.043497870E0,3.391692042E-2,2.590944991E-3,1.645258628E-2
5.048548651E0,3.178692237E-2,3.655944951E-3,1.858258620E-2
5.053599432E0,3.285191953E-2,4.609450698E-4,1.751758531E-2
5.058650214E0,2.859192342E-2,-6.040551234E-4,1.751758531E-2
5.063700995E0,2.326692268E-2,4.609450698E-4,1.858258620E-2
5.068751776E0,1.687692106E-2,2.590944991E-3,1.219258644E-2
5.073796411E0,1.368192211E-2,3.655944951E-3,5.802586209E-3
5.078847193E0,8.356922306E-3,5.785944872E-3,-1.652413979E-3
5.083897922E0,9.019220597E-4,7.915944792E-3,-1.017241366E-2
5.088948703E0,-8.683077991E-3,7.915944792E-3,-1.549741346E-2
5.093999484E0,-1.400807779E-2,1.004594564E-2,-2.188741416E-2
5.099050266E0,-1.613807678E-2,1.004594564E-2,-2.295241319E-2
5.104101984E0,-1.933307946E-2,8.980944753E-3,-1.869241334E-2
5.109152766E0,-2.146307752E-2,6.850944832E-3,-1.975741424E-2
5.114203495E0,-1.933307946E-2,2.590944991E-3,-1.975741424E-2
5.119254276E0,-1.507307868E-2,4.609450698E-4,-1.656241342E-2
5.124305057E0,-1.081307791E-2,-4.864055198E-3,-1.869241334E-2
5.129355839E0,-2.293077996E-3,-1.018905547E-2,-1.549741346E-2
5.134411516E0,1.048692223E-2,-1.231905539E-2,-1.549741346E-2
5.139462297E0,2.220192179E-2,-1.444905438E-2,-1.762741432E-2
5.144513078E0,3.178692237E-2,-1.870905422E-2,-2.188741416E-2
5.149563859E0,3.924192116E-2,-2.190405503E-2,-2.614741400E-2
5.154614589E0,4.350192100E-2,-1.870905422E-2,-3.147241473E-2
5.159665370E0,4.243692011E-2,-1.444905438E-2,-3.679741547E-2
5.164713286E0,3.711191937E-2,-1.018905547E-2,-3.360241279E-2
5.169764068E0,3.285191953E-2,-8.059054613E-3,-3.253741562E-2
5.174814797E0,2.646192163E-2,4.609450698E-4,-3.147241473E-2
5.179865578E0,1.900692284E-2,1.004594564E-2,-2.614741400E-2
5.184916359E0,1.261692215E-2,1.856594533E-2,-2.295241319E-2
5.189967141E0,9.421922266E-3,2.389094420E-2,-1.975741424E-2
5.195019172E0,1.966922078E-3,2.495594509E-2,-1.656241342E-2
5.200069953E0,-2.293077996E-3,2.389094420E-2,-1.443241350E-2
5.205120734E0,-3.358077724E-3,2.495594509E-2,-1.017241366E-2
5.210171464E0,-2.293077996E-3,2.495594509E-2,-2.717413940E-3
5.215222245E0,9.019220597E-4,1.856594533E-2,4.737586249E-3
5.220273026E0,5.161922425E-3,1.324094459E-2,1.112758648E-2
5.225322557E0,1.155192219E-2,4.720944911E-3,1.006258652E-2
5.230373339E0,1.687692106E-2,-4.864055198E-3,5.802586209E-3
5.235424120E0,1.687692106E-2,-1.870905422E-2,3.672586055E-3
5.240474901E0,1.794192195E-2,-2.935905568E-2,-1.652413979E-3
5.245525630E0,2.113692090E-2,-3.042405657E-2,-8.042413741E-3
5.250576411E0,1.581192203E-2,-2.616405487E-2,-1.336741354E-2
5.255622661E0,8.356922306E-3,-1.657905430E-2,-1.656241342E-2
5.260673443E0,-2.293077996E-3,-4.864055198E-3,-1.336741354E-2
5.265724224E0,-1.081307791E-2,3.655944951E-3,-9.107413702E-3
5.270775005E0,-2.146307752E-2,1.004594564E-2,-9.107413702E-3
5.275825734E0,-2.891807631E-2,1.856594533E-2,-5.874139606E-4
5.280876516E0,-3.637307882E-2,2.602094412E-2,4.737586249E-3
5.285935839E0,-3.637307882E-2,3.241094574E-2,5.802586209E-3
5.290986620E0,-3.850308061E-2,3.347594291E-2,1.006258652E-2
5.296037349E0,-3.424307704E-2,2.921594493E-2,1.325758640E-2
5.301088130E0,-2.785307914E-2,2.921594493E-2,1.112758648E-2
5.306138911E0,-2.572307736E-2,3.134594485E-2,1.219258644E-2
5.311189693E0,-2.039807662E-2,2.602094412E-2,1.325758640E-2
5.316236516E0,-1.507307868E-2,1.643594541E-2,1.538758632E-2
5.321287297E0,-1.081307791E-2,5.785944872E-3,1.538758632E-2
5.326338026E0,-4.423077684E-3,-3.799055237E-3,1.751758531E-2
5.331388807E0,-2.293077996E-3,-4.864055198E-3,1.645258628E-2
5.336439589E0,3.031922039E-3,-2.734054811E-3,1.538758632E-2
5.341490370E0,6.226921920E-3,-3.799055237E-3,1.325758640E-2
5.346532557E0,1.048692223E-2,-1.669054851E-3,1.112758648E-2
5.351583339E0,9.421922266E-3,-4.864055198E-3,6.867586169E-3
5.356634068E0,9.421922266E-3,-3.799055237E-3,7.932586595E-3
5.361684849E0,8.356922306E-3,-4.864055198E-3,6.867586169E-3
5.366735630E0,3.031922039E-3,-8.059054613E-3,6.867586169E-3
5.371786411E0,-3.358077724E-3,-5.929054692E-3,3.672586055E-3
5.376867661E0,-7.618078031E-3,-5.929054692E-3,4.737586249E-3
5.381918443E0,-1.294307783E-2,1.525945030E-3,7.932586595E-3
5.386969224E0,-1.400807779E-2,1.111094467E-2,7.932586595E-3
5.392019953E0,-1.507307868E-2,1.430594455E-2,5.802586209E-3
5.397070734E0,-1.187807787E-2,1.537094545E-2,6.867586169E-3
5.402121516E0,-8.683077991E-3,1.750094444E-2,5.802586209E-3
5.407136203E0,-7.618078031E-3,1.537094545E-2,3.672586055E-3
5.412186932E0,-1.630779589E-4,1.537094545E-2,4.737586249E-3
5.417237714E0,8.356922306E-3,1.856594533E-2,4.775859998E-4
5.422288495E0,1.368192211E-2,1.430594455E-2,4.775859998E-4
5.427339224E0,1.794192195E-2,3.655944951E-3,4.775859998E-4
5.432390005E0,2.433192357E-2,-1.669054851E-3,-3.782414133E-3
5.437446724E0,2.752692252E-2,-4.864055198E-3,-6.977413781E-3
5.442497505E0,2.965692058E-2,-9.124054573E-3,-8.042413741E-3
5.447548286E0,3.285191953E-2,-1.231905539E-2,-1.230241358E-2
5.452599068E0,3.391692042E-2,-1.657905430E-2,-1.549741346E-2
5.457649797E0,3.072192147E-2,-1.338405535E-2,-2.082241327E-2
5.462700630E0,2.752692252E-2,-1.657905430E-2,-2.721241303E-2
5.467748286E0,2.326692268E-2,-1.125405543E-2,-3.360241279E-2
5.472799068E0,1.900692284E-2,-4.864055198E-3,-3.679741547E-2
5.477849797E0,1.794192195E-2,2.590944991E-3,-3.360241279E-2
5.482900578E0,1.581192203E-2,8.980944753E-3,-3.147241473E-2
5.487951359E0,9.421922266E-3,1.643594541E-2,-3.147241473E-2
5.493002141E0,1.966922078E-3,2.282594517E-2,-3.040741384E-2
5.498057349E0,-9.748077951E-3,2.495594509E-2,-3.147241473E-2
5.503108130E0,-1.933307946E-2,2.815094590E-2,-2.934241295E-2
5.508158911E0,-3.317807987E-2,2.921594493E-2,-2.934241295E-2
5.513209641E0,-4.169807956E-2,3.241094574E-2,-2.827741392E-2
5.518260422E0,-4.595807940E-2,3.454094380E-2,-2.082241327E-2
5.523311203E0,-4.808807746E-2,3.880094737E-2,-1.975741424E-2
5.528368547E0,-4.702308029E-2,3.347594291E-2,-1.762741432E-2
5.533419328E0,-3.850308061E-2,2.921594493E-2,-1.443241350E-2
5.538470057E0,-2.678807825E-2,1.856594533E-2,-1.230241358E-2
5.543520839E0,-1.294307783E-2,8.980944753E-3,-1.017241366E-2
5.548571620E0,1.966922078E-3,3.655944951E-3,-9.107413702E-3
5.553622401E0,1.581192203E-2,-6.040551234E-4,-1.017241366E-2
5.558700161E0,2.965692058E-2,-4.864055198E-3,-8.042413741E-3
5.563750995E0,3.817692026E-2,-1.669054851E-3,-8.042413741E-3
5.568801724E0,4.243692011E-2,-3.799055237E-3,-3.782414133E-3
5.573852505E0,4.563192278E-2,-3.799055237E-3,4.775859998E-4
5.578903286E0,4.563192278E-2,4.609450698E-4,2.607585862E-3
5.583954016E0,3.817692026E-2,6.850944832E-3,5.802586209E-3
5.588977714E0,2.859192342E-2,1.111094467E-2,5.802586209E-3
5.594028495E0,1.687692106E-2,1.430594455E-2,5.802586209E-3
5.599079276E0,9.019220597E-4,1.963094436E-2,5.802586209E-3
5.604130057E0,-1.400807779E-2,2.282594517E-2,2.607585862E-3
5.609180839E0,-2.678807825E-2,3.347594291E-2,-1.652413979E-3
5.614231568E0,-3.743807971E-2,3.667094558E-2,-1.652413979E-3
5.619273495E0,-4.808807746E-2,3.986594826E-2,-3.782414133E-3
5.624324276E0,-5.554307997E-2,4.519094527E-2,-4.847413860E-3
5.629375057E0,-5.660807714E-2,3.986594826E-2,-6.977413781E-3
5.634425839E0,-5.873807892E-2,3.241094574E-2,-1.017241366E-2
5.639476568E0,-5.234807730E-2,3.241094574E-2,-1.230241358E-2
5.644527349E0,-4.489307851E-2,2.921594493E-2,-1.549741346E-2
5.649580161E0,-3.530807793E-2,2.602094412E-2,-1.975741424E-2
5.654630943E0,-2.785307914E-2,2.815094590E-2,-2.082241327E-2
5.659681672E0,-1.400807779E-2,2.282594517E-2,-1.762741432E-2
5.664732453E0,-1.630779589E-4,1.643594541E-2,-1.123741362E-2
5.669783234E0,1.368192211E-2,1.217594463E-2,-8.042413741E-3
5.674834016E0,2.433192357E-2,5.785944872E-3,-5.912413821E-3
5.679891047E0,3.072192147E-2,-6.040551234E-4,-4.847413860E-3
5.684941828E0,3.604692221E-2,-1.669054851E-3,-5.912413821E-3
5.689992557E0,3.924192116E-2,-5.929054692E-3,-2.717413940E-3
5.695043339E0,3.817692026E-2,-4.864055198E-3,-1.652413979E-3
5.700094120E0,3.391692042E-2,-3.799055237E-3,-2.717413940E-3
5.705144901E0,2.752692252E-2,-2.734054811E-3,-4.847413860E-3
5.710186568E0,1.900692284E-2,-2.734054811E-3,-9.107413702E-3
5.715237349E0,9.421922266E-3,-1.669054851E-3,-1.443241350E-2
5.720288078E0,5.161922425E-3,-1.669054851E-3,-2.188741416E-2
5.725338859E0,-4.423077684E-3,1.525945030E-3,-2.508241311E-2
5.730389641E0,-9.748077951E-3,6.850944832E-3,-3.040741384E-2
5.735440422E0,-1.294307783E-2,1.537094545E-2,-3.147241473E-2
5.740498026E0,-1.613807678E-2,2.389094420E-2,-3.147241473E-2
5.745548807E0,-2.039807662E-2,3.241094574E-2,-3.147241473E-2
5.750599536E0,-2.252807841E-2,3.667094558E-2,-2.721241303E-2
5.755650318E0,-2.359307930E-2,4.306094348E-2,-2.082241327E-2
5.760701099E0,-2.359307930E-2,4.412594438E-2,-1.549741346E-2
5.765751880E0,-2.359307930E-2,3.773594648E-2,-9.107413702E-3
5.770787557E0,-2.359307930E-2,3.028094582E-2,-5.912413821E-3
5.775838339E0,-2.146307752E-2,2.176094428E-2,-2.717413940E-3
5.780889120E0,-2.039807662E-2,1.217594463E-2,-1.652413979E-3
5.785939901E0,-1.507307868E-2,5.785944872E-3,-5.874139606E-4
5.790990682E0,-6.553078070E-3,4.609450698E-4,1.542586018E-3
5.796041411E0,-1.228077803E-3,-6.994054653E-3,-5.874139606E-4
5.801117349E0,5.161922425E-3,-1.657905430E-2,-4.847413860E-3
5.806168078E0,1.261692215E-2,-2.722905576E-2,-5.912413821E-3
5.811218859E0,2.113692090E-2,-3.468405455E-2,-1.017241366E-2
5.816269641E0,2.965692058E-2,-3.681405634E-2,-1.549741346E-2
5.821320422E0,3.391692042E-2,-3.361905366E-2,-1.656241342E-2
5.826371203E0,3.924192116E-2,-3.148905188E-2,-1.869241334E-2
5.831392870E0,3.817692026E-2,-2.935905568E-2,-1.975741424E-2
5.836443599E0,3.604692221E-2,-2.403405495E-2,-1.975741424E-2
5.841494380E0,3.178692237E-2,-1.764405519E-2,-1.656241342E-2
5.846545161E0,2.326692268E-2,-1.444905438E-2,-1.123741362E-2
5.851595943E0,1.155192219E-2,-6.994054653E-3,-1.230241358E-2
5.856646724E0,-1.630779589E-4,-6.040551234E-4,-1.123741362E-2
5.861692193E0,-9.748077951E-3,-6.040551234E-4,-9.107413702E-3
5.866742922E0,-2.146307752E-2,-1.669054851E-3,-8.042413741E-3
5.871793703E0,-3.104807809E-2,-5.929054692E-3,-5.912413821E-3
5.876844484E0,-3.956807777E-2,-5.929054692E-3,-4.847413860E-3
5.881895266E0,-4.702308029E-2,-4.864055198E-3,-5.912413821E-3
5.886946047E0,-5.128308013E-2,-2.734054811E-3,-8.042413741E-3
5.892015526E0,-5.341307819E-2,5.785944872E-3,-9.107413702E-3
5.897066255E0,-5.767307803E-2,8.980944753E-3,-9.107413702E-3
5.902117036E0,-6.086808071E-2,7.915944792E-3,-1.123741362E-2
5.907167818E0,-6.086808071E-2,8.980944753E-3,-1.336741354E-2
5.912218599E0,-5.660807714E-2,3.655944951E-3,-1.336741354E-2
5.917269380E0,-5.341307819E-2,4.609450698E-4,-1.762741432E-2
5.922306359E0,-4.702308029E-2,-8.059054613E-3,-2.082241327E-2
5.927357193E0,-4.276308045E-2,-1.657905430E-2,-2.827741392E-2
5.932407922E0,-3.743807971E-2,-2.296905592E-2,-3.466741368E-2
5.937458703E0,-3.211307898E-2,-3.148905188E-2,-4.212241247E-2
5.942509484E0,-3.211307898E-2,-3.148905188E-2,-4.851241410E-2
5.947560266E0,-2.891807631E-2,-2.083905414E-2,-5.383741483E-2
5.952611099E0,-2.465807647E-2,-1.018905547E-2,-5.277241394E-2
5.957661932E0,-2.359307930E-2,4.720944911E-3,-4.957741499E-2
5.962712661E0,-2.252807841E-2,1.963094436E-2,-4.638241231E-2
5.967763443E0,-1.720307767E-2,3.241094574E-2,-4.105741531E-2
5.972814224E0,-9.748077951E-3,4.093094170E-2,-3.360241279E-2
5.977865005E0,-7.618078031E-3,5.051594228E-2,-3.147241473E-2
5.982929276E0,-6.553078070E-3,5.264594406E-2,-2.934241295E-2
5.987980109E0,-6.553078070E-3,5.264594406E-2,-1.975741424E-2
5.993030839E0,-7.618078031E-3,5.477594584E-2,-1.549741346E-2
5.998081620E0,-1.081307791E-2,5.797094852E-2,-1.230241358E-2
6.003132401E0,-1.507307868E-2,5.584094673E-2,-9.107413702E-3
6.008183182E0,-1.933307946E-2,5.690594763E-2,-9.107413702E-3
6.013211724E0,-2.785307914E-2,5.584094673E-2,-1.123741362E-2
6.018262505E0,-3.424307704E-2,5.903594196E-2,-9.107413702E-3
6.023313286E0,-3.637307882E-2,6.116594374E-2,-1.230241358E-2
6.028364016E0,-3.743807971E-2,4.838594794E-2,-1.549741346E-2
6.033414849E0,-3.850308061E-2,3.560594469E-2,-1.869241334E-2
6.038465578E0,-3.637307882E-2,2.815094590E-2,-2.188741416E-2
6.043518391E0,-3.104807809E-2,1.537094545E-2,-2.295241319E-2
6.048569172E0,-2.146307752E-2,7.915944792E-3,-2.295241319E-2
6.053619953E0,-9.748077951E-3,7.915944792E-3,-1.975741424E-2
6.058670734E0,3.031922039E-3,7.915944792E-3,-1.656241342E-2
6.063721516E0,1.155192219E-2,1.217594463E-2,-1.336741354E-2
6.068772245E0,1.474692207E-2,2.176094428E-2,-1.123741362E-2
6.073830995E0,1.474692207E-2,2.708594501E-2,-1.336741354E-2
6.078881776E0,9.421922266E-3,3.560594469E-2,-1.336741354E-2
6.083932557E0,-4.423077684E-3,5.264594406E-2,-1.443241350E-2
6.088983286E0,-2.359307930E-2,6.542594731E-2,-1.549741346E-2
6.094034120E0,-4.489307851E-2,7.820595056E-2,-1.443241350E-2
6.099084849E0,-6.725808233E-2,8.885594457E-2,-9.107413702E-3
6.104132401E0,-9.175308049E-2,1.069609448E-1,4.775859998E-4
6.109183182E0,-1.183780804E-1,1.261309385E-1,6.867586169E-3
6.114233964E0,-1.407430768E-1,1.431709379E-1,8.997586556E-3
6.119284693E0,-1.556530744E-1,1.580809355E-1,1.112758648E-2
6.124335474E0,-1.684330851E-1,1.751209348E-1,6.867586169E-3
6.129386255E0,-1.748230755E-1,1.879009455E-1,5.802586209E-3
6.134454641E0,-1.737580746E-1,1.942909360E-1,3.672586055E-3
6.139505370E0,-1.694980860E-1,1.942909360E-1,-1.652413979E-3
6.144556151E0,-1.599130780E-1,1.868359447E-1,-5.912413821E-3
6.149606880E0,-1.481980830E-1,1.729909331E-1,-9.107413702E-3
6.154657661E0,-1.343530715E-1,1.612759382E-1,-1.017241366E-2
6.159708443E0,-1.173130795E-1,1.484959424E-1,-1.230241358E-2
6.164737661E0,-1.013380811E-1,1.335859448E-1,-1.336741354E-2
6.169788443E0,-8.536307514E-2,1.165459454E-1,-1.549741346E-2
6.174839224E0,-7.151807845E-2,1.037659496E-1,-1.656241342E-2
6.179889953E0,-5.660807714E-2,9.311594814E-2,-2.295241319E-2
6.184940734E0,-4.595807940E-2,8.246594667E-2,-2.614741400E-2
6.189991516E0,-3.530807793E-2,6.436094642E-2,-2.827741392E-2
6.195045214E0,-2.465807647E-2,4.519094527E-2,-3.360241279E-2
6.200095995E0,-1.613807678E-2,2.921594493E-2,-3.892741352E-2
6.205146724E0,-9.748077951E-3,1.750094444E-2,-4.744741321E-2
6.210197505E0,-1.630779589E-4,7.915944792E-3,-5.703241378E-2
6.215248286E0,6.226921920E-3,1.525945030E-3,-6.555241346E-2
6.220299068E0,9.421922266E-3,-4.864055198E-3,-7.833241671E-2
6.225352818E0,1.261692215E-2,-8.059054613E-3,-8.791741729E-2
6.230403547E0,1.900692284E-2,-8.059054613E-3,-9.111241251E-2
6.235454328E0,2.113692090E-2,-1.231905539E-2,-9.111241251E-2
6.240505109E0,2.539692074E-2,-1.444905438E-2,-9.324241430E-2
6.245555891E0,2.965692058E-2,-1.870905422E-2,-9.643741697E-2
6.250606672E0,2.965692058E-2,-2.509905584E-2,-9.750241041E-2
6.255657245E0,3.072192147E-2,-3.468405455E-2,-9.537241608E-2
6.260707974E0,3.285191953E-2,-3.787905723E-2,-9.111241251E-2
6.265758755E0,3.178692237E-2,-4.533405602E-2,-8.578741550E-2
6.270809589E0,3.072192147E-2,-4.959405214E-2,-8.152741194E-2
6.275860318E0,3.604692221E-2,-5.811405182E-2,-7.726741582E-2
6.280911099E0,3.817692026E-2,-6.769905239E-2,-6.981241703E-2
6.285968807E0,4.243692011E-2,-8.047905564E-2,-6.448741257E-2
6.291019536E0,4.563192278E-2,-8.686905354E-2,-6.129241362E-2
6.296070318E0,5.095691979E-2,-9.325905144E-2,-5.596741289E-2
6.301121047E0,5.308692157E-2,-1.039090529E-1,-5.490241200E-2
6.306171828E0,5.521691963E-2,-1.124290526E-1,-5.277241394E-2
6.311222609E0,5.415192246E-2,-1.188190505E-1,-4.957741499E-2
6.316259745E0,4.456692189E-2,-1.220140532E-1,-4.957741499E-2
6.321310526E0,2.859192342E-2,-1.252090633E-1,-5.277241394E-2
6.326361307E0,1.261692215E-2,-1.252090633E-1,-5.809741467E-2
6.331412036E0,-7.618078031E-3,-1.284040660E-1,-6.129241362E-2
6.336462870E0,-3.104807809E-2,-1.252090633E-1,-5.916241556E-2
6.341513651E0,-5.021807924E-2,-1.198840514E-1,-5.383741483E-2
6.346575370E0,-6.619308144E-2,-1.198840514E-1,-4.638241231E-2
6.351626099E0,-7.897307724E-2,-1.230790541E-1,-4.105741531E-2
6.356676880E0,-8.323308080E-2,-1.262740642E-1,-3.999241441E-2
6.361727609E0,-8.323308080E-2,-1.294690669E-1,-3.679741547E-2
6.366778391E0,-7.045307755E-2,-1.326640546E-1,-3.253741562E-2
6.371829172E0,-4.915307835E-2,-1.326640546E-1,-3.147241473E-2
6.376873703E0,-1.933307946E-2,-1.337290555E-1,-2.827741392E-2
6.381924432E0,1.048692223E-2,-1.358590573E-1,-2.401741408E-2
6.386975214E0,4.350192100E-2,-1.369240582E-1,-2.295241319E-2
6.392025995E0,7.971192151E-2,-1.422490627E-1,-2.721241303E-2
6.397076776E0,1.105969176E-1,-1.390540600E-1,-2.827741392E-2
6.402127557E0,1.350919157E-1,-1.326640546E-1,-2.934241295E-2
6.407183182E0,1.542619169E-1,-1.284040660E-1,-3.147241473E-2
6.412233911E0,1.617169231E-1,-1.156240553E-1,-2.827741392E-2
6.417284693E0,1.595869213E-1,-1.092340499E-1,-3.040741384E-2
6.422335474E0,1.500019282E-1,-1.017790511E-1,-3.147241473E-2
6.427386255E0,1.329619139E-1,-1.007140502E-1,-3.040741384E-2
6.432437036E0,1.095319241E-1,-9.751905501E-2,-3.040741384E-2
6.437479484E0,8.397191763E-2,-9.219405055E-2,-3.573241457E-2
6.442530214E0,6.054192036E-2,-8.899905533E-2,-3.999241441E-2
6.447580995E0,4.243692011E-2,-9.325905144E-2,-4.638241231E-2
6.452631828E0,2.539692074E-2,-9.858405590E-2,-5.490241200E-2
6.457682557E0,1.474692207E-2,-1.060390547E-1,-6.022741273E-2
6.462733339E0,1.155192219E-2,-1.071040556E-1,-6.555241346E-2
6.467798026E0,1.155192219E-2,-1.134940535E-1,-7.194241136E-2
6.472848755E0,1.261692215E-2,-1.188190505E-1,-7.513741404E-2
6.477899536E0,1.581192203E-2,-1.188190505E-1,-7.726741582E-2
6.482950266E0,1.900692284E-2,-1.188190505E-1,-7.939741015E-2
6.488001099E0,2.113692090E-2,-1.113640517E-1,-8.259241283E-2
6.493051880E0,2.220192179E-2,-1.028440520E-1,-8.365741372E-2
6.498079589E0,2.007192373E-2,-9.751905501E-2,-8.472241461E-2
6.503130370E0,1.687692106E-2,-8.793405443E-2,-8.685241640E-2
6.508181151E0,1.155192219E-2,-7.834905386E-2,-9.004741162E-2
6.513231880E0,8.356922306E-3,-6.769905239E-2,-9.537241608E-2
6.518282661E0,-1.630779589E-4,-5.491905659E-2,-9.963241220E-2
6.523333443E0,-1.294307783E-2,-4.852905869E-2,-1.028274149E-1
6.528388651E0,-2.678807825E-2,-4.213905334E-2,-1.092174128E-1
6.533439432E0,-4.276308045E-2,-4.426905513E-2,-1.166724116E-1
6.538490214E0,-5.873807892E-2,-4.107405245E-2,-1.209324151E-1
6.543540943E0,-7.897307724E-2,-4.320405424E-2,-1.209324151E-1
6.548591776E0,-9.814307839E-2,-4.320405424E-2,-1.145424172E-1
6.553642505E0,-1.119880825E-1,-4.533405602E-2,-1.070874110E-1
6.558703391E0,-1.205080822E-1,-4.852905869E-2,-9.750241041E-2
6.563754120E0,-1.268980801E-1,-5.172405392E-2,-8.898241073E-2
6.568804901E0,-1.268980801E-1,-5.065905303E-2,-8.259241283E-2
6.573855682E0,-1.194430813E-1,-5.172405392E-2,-7.833241671E-2
6.578906464E0,-1.119880825E-1,-5.065905303E-2,-6.768241525E-2
6.583957245E0,-1.013380811E-1,-4.533405602E-2,-5.596741289E-2
6.589011568E0,-8.749307692E-2,-4.320405424E-2,-4.425241426E-2
6.594062297E0,-7.471308112E-2,-4.320405424E-2,-2.721241303E-2
6.599113078E0,-6.832307577E-2,-3.894405812E-2,-1.230241358E-2
6.604163859E0,-5.873807892E-2,-3.361905366E-2,4.775859998E-4
6.609214641E0,-5.873807892E-2,-3.042405657E-2,1.432258636E-2
6.614265422E0,-5.980307981E-2,-2.403405495E-2,2.177758701E-2
6.619314276E0,-6.938807666E-2,-1.977405511E-2,2.497258596E-2
6.624365005E0,-8.216807991E-2,-2.083905414E-2,2.816758677E-2
6.629415786E0,-9.814307839E-2,-1.870905422E-2,2.710258588E-2
6.634466568E0,-1.109230816E-1,-1.444905438E-2,2.497258596E-2
6.639517349E0,-1.290280819E-1,-8.059054613E-3,2.284258604E-2
6.644568130E0,-1.450030804E-1,-1.669054851E-3,2.284258604E-2
6.649611984E0,-1.535230726E-1,2.590944991E-3,1.751758531E-2
6.654662766E0,-1.577830762E-1,5.785944872E-3,1.645258628E-2
6.659713547E0,-1.620430797E-1,4.609450698E-4,1.751758531E-2
6.664764276E0,-1.641730815E-1,-1.125405543E-2,2.071258612E-2
6.669815109E0,-1.609780788E-1,-2.509905584E-2,2.284258604E-2
6.674865839E0,-1.588480771E-1,-4.533405602E-2,2.816758677E-2
6.679920005E0,-1.577830762E-1,-6.237405539E-2,2.923258580E-2
6.684970734E0,-1.535230726E-1,-8.260904998E-2,3.029758669E-2
6.690021516E0,-1.492630839E-1,-9.751905501E-2,3.455758467E-2
6.695072297E0,-1.450030804E-1,-1.028440520E-1,3.775258735E-2
6.700123078E0,-1.418080777E-1,-1.007140502E-1,4.307758436E-2
6.705173859E0,-1.407430768E-1,-8.793405443E-2,4.946758598E-2
6.710220214E0,-1.386130750E-1,-7.621905208E-2,5.585758761E-2
6.715270995E0,-1.332880855E-1,-6.024405360E-2,5.905258656E-2
6.720321724E0,-1.300930828E-1,-4.639905691E-2,6.011758745E-2
6.725372505E0,-1.268980801E-1,-3.042405657E-2,6.118258461E-2
6.730423286E0,-1.290280819E-1,-1.338405535E-2,5.692258477E-2
6.735474016E0,-1.258330792E-1,1.525945030E-3,5.798758566E-2
6.740515526E0,-1.226380765E-1,1.430594455E-2,6.011758745E-2
6.745566255E0,-1.162480786E-1,2.069594525E-2,6.331258267E-2
6.750617089E0,-1.077280790E-1,2.069594525E-2,6.970258802E-2
6.755667818E0,-1.002730802E-1,1.643594541E-2,7.396258414E-2
6.760718599E0,-9.068807960E-2,1.324094459E-2,7.822258770E-2
6.765769380E0,-7.897307724E-2,-6.040551234E-4,8.141758293E-2
6.770820995E0,-7.364808023E-2,-1.444905438E-2,7.822258770E-2
6.775871724E0,-7.258307934E-2,-2.722905576E-2,7.715758681E-2
6.780922505E0,-7.045307755E-2,-4.000905156E-2,7.609258592E-2
6.785973286E0,-6.619308144E-2,-4.426905513E-2,7.183258981E-2
6.791024068E0,-6.406307966E-2,-4.426905513E-2,6.437758356E-2
6.796074849E0,-6.832307577E-2,-4.533405602E-2,5.692258477E-2
6.801122766E0,-7.471308112E-2,-4.639905691E-2,4.733758792E-2
6.806173495E0,-8.216807991E-2,-4.320405424E-2,4.201258719E-2
6.811224276E0,-8.855807781E-2,-3.787905723E-2,3.881758451E-2
6.816275057E0,-9.601307660E-2,-2.722905576E-2,3.775258735E-2
6.821325839E0,-1.002730802E-1,-1.338405535E-2,4.201258719E-2
6.826376620E0,-1.066630781E-1,1.525945030E-3,4.414258525E-2
6.831427505E0,-1.034680754E-1,2.069594525E-2,4.840258509E-2
6.836478286E0,-9.281808138E-2,4.306094348E-2,5.266258493E-2
6.841529068E0,-8.110307902E-2,5.797094852E-2,5.372758582E-2
6.846579797E0,-6.193307787E-2,7.501094788E-2,5.692258477E-2
6.851630578E0,-4.169807956E-2,8.459594846E-2,5.585758761E-2
6.856681359E0,-1.507307868E-2,8.885594457E-2,5.692258477E-2
6.861717922E0,1.261692215E-2,9.311594814E-2,6.118258461E-2
6.866768651E0,4.137192294E-2,9.311594814E-2,6.863758713E-2
6.871819432E0,6.799691916E-2,9.311594814E-2,7.502758503E-2
6.876870214E0,9.462191910E-2,9.524594992E-2,8.248258382E-2
6.881920995E0,1.180519238E-1,9.631094337E-2,9.206758440E-2
6.886971724E0,1.393519193E-1,9.844094515E-2,1.037825868E-1
6.892031620E0,1.574569196E-1,1.037659496E-1,1.091075838E-1
6.897082401E0,1.744969189E-1,1.058959439E-1,1.154975891E-1
6.902133182E0,1.862119138E-1,1.101559475E-1,1.208225861E-1
6.907183911E0,1.968619227E-1,1.122859493E-1,1.250825822E-1
6.912234745E0,2.043169141E-1,1.176109463E-1,1.250825822E-1
6.917285474E0,2.053819150E-1,1.282609403E-1,1.261475831E-1
6.922333026E0,2.107069194E-1,1.357159466E-1,1.314725727E-1
6.927383703E0,2.128369212E-1,1.474309415E-1,1.314725727E-1
6.932434380E0,2.096419185E-1,1.580809355E-1,1.293425858E-1
6.937485057E0,2.075119168E-1,1.644709408E-1,1.272125840E-1
6.942535682E0,2.043169141E-1,1.687309444E-1,1.293425858E-1
6.947586359E0,1.979269236E-1,1.602109373E-1,1.346675754E-1
6.952630109E0,1.904719174E-1,1.495609432E-1,1.399925798E-1
6.957680786E0,1.872769147E-1,1.410409361E-1,1.346675754E-1
6.962731464E0,1.840819269E-1,1.293259412E-1,1.367975771E-1
6.967782089E0,1.894069165E-1,1.186759472E-1,1.325375736E-1
6.972832766E0,1.947319210E-1,1.112209484E-1,1.282775849E-1
6.977883443E0,1.968619227E-1,1.080259457E-1,1.282775849E-1
6.982941724E0,2.064469159E-1,1.016359478E-1,1.325375736E-1
6.987992401E0,2.149669230E-1,9.950594604E-2,1.410575807E-1
6.993043078E0,2.288119197E-1,9.950594604E-2,1.559675783E-1
6.998093703E0,2.469169199E-1,1.016359478E-1,1.762025803E-1
7.003144380E0,2.682169080E-1,1.058959439E-1,1.975025833E-1
7.008195057E0,2.927119136E-1,1.112209484E-1,2.134775817E-1
7.013257974E0,3.204019070E-1,1.165459454E-1,2.241275758E-1
7.018308651E0,3.427669108E-1,1.133509502E-1,2.305175811E-1
7.023359328E0,3.683269322E-1,1.112209484E-1,2.358425856E-1
7.028410005E0,3.928219080E-1,1.101559475E-1,2.422325760E-1
7.033460682E0,4.130569100E-1,1.122859493E-1,2.496875823E-1
7.038511307E0,4.343569279E-1,1.101559475E-1,2.507525980E-1
7.043558078E0,4.460719228E-1,1.027009487E-1,2.507525980E-1
7.048608755E0,4.503319263E-1,8.779094368E-2,2.475575805E-1
7.053659432E0,4.482019246E-1,6.223094463E-2,2.432975769E-1
7.058710109E0,4.343569279E-1,3.560594469E-2,2.337125838E-1
7.063760786E0,4.098619223E-1,-6.040551234E-4,2.251925766E-1
7.068811411E0,3.768469095E-1,-3.894405812E-2,2.166725844E-1
7.073871203E0,3.406369090E-1,-8.154405653E-2,2.092175782E-1
7.078921880E0,3.012319207E-1,-1.220140532E-1,2.060225755E-1
7.083972557E0,2.607619166E-1,-1.571590602E-1,2.028275728E-1
7.089023182E0,2.266819179E-1,-1.933690608E-1,1.964375824E-1
7.094073859E0,2.053819150E-1,-2.242540568E-1,1.857875735E-1
7.099124536E0,1.904719174E-1,-2.380990535E-1,1.751375794E-1
7.104176047E0,1.862119138E-1,-2.412940562E-1,1.666175723E-1
7.109226724E0,1.894069165E-1,-2.263840586E-1,1.612925828E-1
7.114277401E0,2.000569254E-1,-2.061490566E-1,1.570325792E-1
7.119328078E0,2.160319239E-1,-1.763290614E-1,1.570325792E-1
7.124378755E0,2.373319268E-1,-1.401190609E-1,1.612925828E-1
7.129429380E0,2.628919184E-1,-9.006405622E-2,1.730075777E-1
7.134460995E0,2.884519100E-1,-3.468405455E-2,1.868525743E-1
7.139511620E0,3.161419332E-1,2.708594501E-2,2.017625719E-1
7.144562297E0,3.406369090E-1,8.140094578E-2,2.145425826E-1
7.149612974E0,3.576769233E-1,1.229359433E-1,2.166725844E-1
7.154663651E0,3.661969304E-1,1.474309415E-1,2.156075835E-1
7.159714328E0,3.661969304E-1,1.591459364E-1,2.060225755E-1
7.164799745E0,3.587419093E-1,1.634059399E-1,1.985675842E-1
7.169850422E0,3.395719230E-1,1.708609462E-1,1.932425797E-1
7.174901047E0,3.108169138E-1,1.687309444E-1,1.900475770E-1
7.179951724E0,2.756719291E-1,1.495609432E-1,1.879175752E-1
7.185002401E0,2.309419215E-1,1.293259412E-1,1.879175752E-1
7.190053078E0,1.862119138E-1,1.048309505E-1,1.900475770E-1
7.195078495E0,1.425469220E-1,7.820595056E-2,1.889825761E-1
7.200129120E0,1.042069197E-1,5.797094852E-2,1.879175752E-1
7.205179797E0,6.799691916E-2,3.773594648E-2,1.825925857E-1
7.210230474E0,3.924192116E-2,2.282594517E-2,1.772675812E-1
7.215281151E0,1.687692106E-2,1.537094545E-2,1.698125750E-1
7.220331828E0,-1.228077803E-3,2.282594517E-2,1.591625810E-1
7.225396255E0,-1.613807678E-2,3.347594291E-2,1.453175843E-1
7.230446880E0,-3.104807809E-2,4.519094527E-2,1.336025745E-1
7.235497557E0,-5.234807730E-2,5.264594406E-2,1.186925843E-1
7.240548234E0,-7.151807845E-2,6.116594374E-2,1.016525850E-1
7.245598859E0,-8.962307870E-2,6.649094820E-2,8.248258382E-2
7.250649536E0,-1.119880825E-1,6.010094285E-2,6.863758713E-2
7.255703339E0,-1.311580837E-1,4.945094138E-2,5.479258671E-2
7.260754016E0,-1.471330822E-1,3.880094737E-2,4.733758792E-2
7.265804693E0,-1.652380824E-1,3.986594826E-2,4.627258703E-2
7.270855370E0,-1.726930737E-1,4.732094705E-2,4.414258525E-2
7.275905995E0,-1.737580746E-1,5.797094852E-2,4.414258525E-2
7.280956672E0,-1.705630720E-1,6.862094998E-2,4.946758598E-2
7.286011984E0,-1.620430797E-1,7.820595056E-2,5.798758566E-2
7.291062661E0,-1.450030804E-1,9.098594636E-2,6.970258802E-2
7.296113339E0,-1.183780804E-1,1.058959439E-1,8.248258382E-2
7.301164016E0,-8.429808170E-2,1.229359433E-1,9.313258529E-2
7.306214641E0,-4.915307835E-2,1.389109343E-1,1.027175859E-1
7.311265318E0,-1.400807779E-2,1.538209468E-1,1.080425829E-1
7.316323495E0,2.113692090E-2,1.676659435E-1,1.101725847E-1
7.321374172E0,5.202192068E-2,1.761859357E-1,1.112375855E-1
7.326424849E0,7.332192361E-2,1.857709438E-1,1.069775894E-1
7.331475526E0,8.823192120E-2,1.868359447E-1,9.845758975E-2
7.336526151E0,9.142692387E-2,1.793809384E-1,8.461258560E-2
7.341576828E0,8.610191941E-2,1.666009426E-1,7.076758891E-2
7.346622297E0,7.971192151E-2,1.474309415E-1,5.372758582E-2
7.351672974E0,6.267192215E-2,1.303909421E-1,3.562258556E-2
7.356723599E0,3.604692221E-2,1.133509502E-1,1.858258620E-2
7.361774328E0,6.226921920E-3,1.027009487E-1,-4.847413860E-3
7.366824953E0,-3.317807987E-2,9.311594814E-2,-2.508241311E-2
7.371875630E0,-7.471308112E-2,8.353094757E-2,-4.638241231E-2
7.376911359E0,-1.194430813E-1,7.607594877E-2,-6.768241525E-2
7.381961984E0,-1.620430797E-1,7.714094967E-2,-8.152741194E-2
7.387012661E0,-1.993180811E-1,7.927094400E-2,-9.643741697E-2
7.392063339E0,-2.270080745E-1,9.205094725E-2,-1.070874110E-1
7.397113964E0,-2.461780757E-1,1.058959439E-1,-1.124124154E-1
7.402164641E0,-2.525680661E-1,1.165459454E-1,-1.166724116E-1
7.407213234E0,-2.493730783E-1,1.271959394E-1,-1.166724116E-1
7.412263911E0,-2.355280817E-1,1.325209439E-1,-1.134774163E-1
7.417314589E0,-2.120980769E-1,1.303909421E-1,-1.070874110E-1
7.422365266E0,-1.758880764E-1,1.250659376E-1,-1.006974131E-1
7.427415891E0,-1.300930828E-1,1.261309385E-1,-9.217741340E-2
7.432466620E0,-8.216807991E-2,1.282609403E-1,-8.578741550E-2
7.437504953E0,-3.424307704E-2,1.325209439E-1,-8.152741194E-2
7.442555630E0,1.048692223E-2,1.367809325E-1,-8.259241283E-2
7.447606307E0,4.776192084E-2,1.367809325E-1,-8.791741729E-2
7.452656984E0,6.799691916E-2,1.325209439E-1,-9.750241041E-2
7.457707609E0,7.545191795E-2,1.250659376E-1,-1.081524119E-1
7.462758286E0,6.693191826E-2,1.069609448E-1,-1.198674142E-1
7.467810682E0,4.456692189E-2,8.459594846E-2,-1.294524223E-1
7.472861359E0,1.368192211E-2,6.436094642E-2,-1.379724145E-1
7.477912036E0,-2.146307752E-2,4.838594794E-2,-1.496874243E-1
7.482962714E0,-5.980307981E-2,3.667094558E-2,-1.560774148E-1
7.488013339E0,-9.388308227E-2,3.134594485E-2,-1.614024192E-1
7.493064016E0,-1.183780804E-1,2.389094420E-2,-1.645974219E-1
7.498117766E0,-1.386130750E-1,1.963094436E-2,-1.677924246E-1
7.503168443E0,-1.460680813E-1,2.069594525E-2,-1.731174141E-1
7.508219120E0,-1.386130750E-1,2.282594517E-2,-1.709874272E-1
7.513269797E0,-1.247680783E-1,2.282594517E-2,-1.645974219E-1
7.518320422E0,-1.045330763E-1,2.069594525E-2,-1.528824270E-1
7.523371099E0,-7.151807845E-2,1.537094545E-2,-1.411674172E-1
7.528421411E0,-3.424307704E-2,4.720944911E-3,-1.315824240E-1
7.533472089E0,1.966922078E-3,-1.444905438E-2,-1.219974160E-1
7.538522766E0,3.711191937E-2,-3.681405634E-2,-1.145424172E-1
7.543573443E0,6.586692482E-2,-5.491905659E-2,-1.134774163E-1
7.548624120E0,8.929692209E-2,-6.982905418E-2,-1.102824137E-1
7.553674745E0,1.095319241E-1,-8.580405265E-2,-1.102824137E-1
7.558709484E0,1.201819181E-1,-9.751905501E-2,-1.092174128E-1
7.563760109E0,1.212469190E-1,-1.113640517E-1,-1.081524119E-1
7.568810786E0,1.148569211E-1,-1.315990537E-1,-1.124124154E-1
7.573861464E0,1.010119244E-1,-1.486390680E-1,-1.209324151E-1
7.578912141E0,8.610191941E-2,-1.699390560E-1,-1.326474249E-1
7.583962818E0,6.373692304E-2,-1.869790554E-1,-1.411674172E-1
7.589016099E0,4.030692205E-2,-1.965640634E-1,-1.496874243E-1
7.594066724E0,1.687692106E-2,-2.104090601E-1,-1.507524252E-1
7.599117401E0,-5.488078110E-3,-2.167990655E-1,-1.486224234E-1
7.604168078E0,-2.465807647E-2,-2.231890559E-1,-1.464924216E-1
7.609218703E0,-3.637307882E-2,-2.263840586E-1,-1.443624198E-1
7.614269432E0,-4.489307851E-2,-2.242540568E-1,-1.369074285E-1
7.619332505E0,-4.489307851E-2,-2.199940532E-1,-1.209324151E-1
7.624383182E0,-3.211307898E-2,-2.050840557E-1,-1.017624140E-1
7.629433859E0,-8.683077991E-3,-1.741990596E-1,-7.620241493E-2
7.634484536E0,2.752692252E-2,-1.252090633E-1,-5.277241394E-2
7.639535214E0,7.438692451E-2,-7.302405685E-2,-3.040741384E-2
7.644585839E0,1.287019253E-1,-1.870905422E-2,-1.336741354E-2
7.649626932E0,1.830169261E-1,3.134594485E-2,-5.874139606E-4
7.654677557E0,2.277469188E-1,6.116594374E-2,1.006258652E-2
7.659728234E0,2.575669289E-1,6.862094998E-2,1.538758632E-2
7.664778911E0,2.714119256E-1,5.158094317E-2,1.325758640E-2
7.669829536E0,2.692819238E-1,1.643594541E-2,8.997586556E-3
7.674880214E0,2.533069253E-1,-2.083905414E-2,-2.717413940E-3
7.679940422E0,2.266819179E-1,-5.811405182E-2,-2.082241327E-2
7.684991099E0,1.872769147E-1,-9.538905323E-2,-3.466741368E-2
7.690041776E0,1.372219175E-1,-1.294690669E-1,-4.744741321E-2
7.695092453E0,8.077692240E-2,-1.592890620E-1,-5.277241394E-2
7.700143078E0,2.433192357E-2,-1.784590632E-1,-5.703241378E-2
7.705193755E0,-2.572307736E-2,-1.720690578E-1,-5.596741289E-2
7.710238130E0,-6.406307966E-2,-1.560940593E-1,-5.277241394E-2
7.715288807E0,-8.749307692E-2,-1.390540600E-1,-4.744741321E-2
7.720339432E0,-1.024030820E-1,-1.113640517E-1,-4.105741531E-2
7.725390109E0,-1.066630781E-1,-8.473905176E-2,-3.786241263E-2
7.730440786E0,-1.024030820E-1,-6.237405539E-2,-3.360241279E-2
7.735491464E0,-9.281808138E-2,-4.639905691E-2,-3.786241263E-2
7.740554380E0,-8.110307902E-2,-3.894405812E-2,-4.851241410E-2
7.745605057E0,-6.832307577E-2,-4.533405602E-2,-6.661741436E-2
7.750655734E0,-6.193307787E-2,-6.343905628E-2,-9.537241608E-2
7.755706411E0,-6.725808233E-2,-9.751905501E-2,-1.369074285E-1
7.760757089E0,-8.323308080E-2,-1.433140635E-1,-1.858974248E-1
7.765807714E0,-1.109230816E-1,-1.827190667E-1,-2.402124256E-1
7.770858078E0,-1.503280848E-1,-2.093440592E-1,-2.934623957E-1
7.775908755E0,-1.897330731E-1,-2.306440622E-1,-3.381924033E-1
7.780959432E0,-2.302030772E-1,-2.338390648E-1,-3.775973916E-1
7.786010109E0,-2.685430646E-1,-2.167990655E-1,-4.159373939E-1
7.791060786E0,-3.026230931E-1,-1.880440563E-1,-4.457574189E-1
7.796111464E0,-3.281830847E-1,-1.518340558E-1,-4.702523947E-1
7.801152297E0,-3.398980796E-1,-1.028440520E-1,-4.862273932E-1
7.806202974E0,-3.303130865E-1,-4.000905156E-2,-4.958124161E-1
7.811253651E0,-3.036880791E-1,2.389094420E-2,-5.000724196E-1
7.816304328E0,-2.536330819E-1,9.311594814E-2,-5.032674074E-1
7.821354953E0,-1.865380853E-1,1.484959424E-1,-5.000724196E-1
7.826405630E0,-1.087930799E-1,1.879009455E-1,-4.894224107E-1
7.831475526E0,-2.465807647E-2,2.092009336E-1,-4.745123982E-1
7.836526203E0,6.267192215E-2,2.198509425E-1,-4.542773962E-1
7.841576828E0,1.414819211E-1,2.123959363E-1,-4.308474064E-1
7.846627505E0,2.107069194E-1,1.900309324E-1,-4.106124043E-1
7.851678182E0,2.682169080E-1,1.580809355E-1,-3.935724199E-1
7.856728859E0,3.097519279E-1,1.186759472E-1,-3.850524127E-1
7.861759328E0,3.321169317E-1,8.353094757E-2,-3.818573952E-1
7.866810005E0,3.374419212E-1,5.264594406E-2,-3.893124163E-1
7.871860682E0,3.257269263E-1,3.028094582E-2,-4.010274112E-1
7.876911359E0,2.991019189E-1,2.282594517E-2,-4.180673957E-1
7.881961984E0,2.607619166E-1,2.069594525E-2,-4.372374117E-1
7.887012661E0,2.085769176E-1,1.856594533E-2,-4.564073980E-1
7.892062714E0,1.542619169E-1,1.324094459E-2,-4.755774140E-1
7.897113391E0,1.031419188E-1,7.915944792E-3,-4.862273932E-1
7.902164016E0,6.054192036E-2,4.609450698E-4,-4.862273932E-1
7.907214693E0,3.178692237E-2,-1.657905430E-2,-4.798374176E-1
7.912265370E0,2.007192373E-2,-2.935905568E-2,-4.681223929E-1
7.917316047E0,2.859192342E-2,-3.681405634E-2,-4.489524066E-1
7.922359641E0,5.521691963E-2,-4.852905869E-2,-4.287174046E-1
7.927410318E0,9.355691820E-2,-5.385405570E-2,-4.042223990E-1
7.932460995E0,1.393519193E-1,-6.024405360E-2,-3.818573952E-1
7.937511620E0,1.851469278E-1,-6.769905239E-2,-3.573624194E-1
7.942562297E0,2.266819179E-1,-6.982905418E-2,-3.275423944E-1
7.947612870E0,2.671519220E-1,-7.621905208E-2,-2.955923975E-1
7.952668807E0,3.044269085E-1,-8.473905176E-2,-2.647074163E-1
7.957719432E0,3.374419212E-1,-9.645405412E-2,-2.348874211E-1
7.962770057E0,3.598069251E-1,-1.081690565E-1,-2.071974277E-1
7.967820734E0,3.789769113E-1,-1.134940535E-1,-1.869624257E-1
7.972871359E0,3.928219080E-1,-1.156240553E-1,-1.656624228E-1
7.977921984E0,4.013419151E-1,-1.113640517E-1,-1.507524252E-1
7.982971047E0,4.087969065E-1,-1.017790511E-1,-1.358424276E-1
7.988021672E0,4.151869118E-1,-9.006405622E-2,-1.219974160E-1
7.993072349E0,4.205119312E-1,-7.728405297E-2,-1.156074107E-1
7.998122974E0,4.247719347E-1,-6.343905628E-2,-1.124124154E-1
8.003173651E0,4.226419330E-1,-5.065905303E-2,-1.124124154E-1
8.008224276E0,4.141219258E-1,-3.894405812E-2,-1.113474146E-1
8.013271359E0,3.981469274E-1,-2.935905568E-2,-1.092174128E-1
8.018321984E0,3.800419271E-1,-1.764405519E-2,-9.856741130E-2
8.023372661E0,3.534169197E-1,-3.799055237E-3,-8.152741194E-2
8.028423339E0,3.246619105E-1,1.430594455E-2,-6.022741273E-2
8.033473964E0,2.927119136E-1,3.454094380E-2,-3.253741562E-2
8.038524589E0,2.660869360E-1,5.051594228E-2,-3.782414133E-3
8.043581724E0,2.415919155E-1,6.329594553E-2,2.284258604E-2
8.048632349E0,2.245519161E-1,7.607594877E-2,4.946758598E-2
8.053683026E0,2.160319239E-1,8.459594846E-2,7.609258592E-2
8.058733651E0,2.128369212E-1,9.311594814E-2,1.005875841E-1
8.063784328E0,2.192269266E-1,9.631094337E-2,1.261475831E-1
8.068834953E0,2.277469188E-1,1.005709469E-1,1.538375765E-1
8.073879432E0,2.394619137E-1,1.016359478E-1,1.740725785E-1
8.078930057E0,2.479819208E-1,9.311594814E-2,1.879175752E-1
8.083980734E0,2.522419095E-1,8.353094757E-2,1.964375824E-1
8.089031411E0,2.458519191E-1,7.288094610E-2,2.028275728E-1
8.094082036E0,2.352019250E-1,6.436094642E-2,2.028275728E-1
8.099132714E0,2.149669230E-1,6.116594374E-2,1.953725815E-1
8.104185734E0,1.926019192E-1,6.010094285E-2,1.825925857E-1
8.109236359E0,1.617169231E-1,5.903594196E-2,1.676825732E-1
8.114286984E0,1.308319271E-1,5.797094852E-2,1.549025774E-1
8.119337661E0,1.031419188E-1,4.093094170E-2,1.453175843E-1
8.124388286E0,7.864692062E-2,2.282594517E-2,1.367975771E-1
8.129438911E0,5.308692157E-2,5.785944872E-3,1.304075718E-1
8.134500422E0,3.178692237E-2,-1.764405519E-2,1.240175888E-1
8.139551047E0,1.368192211E-2,-4.000905156E-2,1.208225861E-1
8.144601672E0,-6.553078070E-3,-5.598405749E-2,1.240175888E-1
8.149652349E0,-2.572307736E-2,-7.302405685E-2,1.304075718E-1
8.154702974E0,-4.382807761E-2,-7.834905386E-2,1.463825852E-1
8.159753651E0,-6.406307966E-2,-8.260904998E-2,1.634225845E-1
8.164793964E0,-8.642807603E-2,-8.047905564E-2,1.804625839E-1
8.169844589E0,-1.109230816E-1,-7.515405118E-2,1.985675842E-1
8.174895214E0,-1.396780759E-1,-6.876405329E-2,2.166725844E-1
8.179945839E0,-1.673680842E-1,-5.598405749E-2,2.358425856E-1
8.184996516E0,-1.929280758E-1,-3.468405455E-2,2.582075894E-1
8.190047193E0,-2.184880823E-1,4.609450698E-4,2.752476037E-1
8.195100474E0,-2.461780757E-1,3.560594469E-2,2.912226021E-1
8.200151151E0,-2.653480768E-1,7.714094967E-2,3.050675988E-1
8.205201776E0,-2.877130806E-1,1.186759472E-1,3.221075833E-1
8.210252401E0,-3.090130687E-1,1.644709408E-1,3.348875940E-1
8.215303078E0,-3.228580654E-1,2.081359327E-1,3.444725871E-1
8.220353703E0,-3.345730901E-1,2.464759350E-1,3.540575802E-1
8.225403391E0,-3.452230692E-1,2.741659582E-1,3.615126014E-1
8.230454068E0,-3.526780903E-1,2.890759408E-1,3.636426032E-1
8.235504693E0,-3.590680659E-1,2.901409566E-1,3.529925942E-1
8.240555318E0,-3.729130924E-1,2.848159671E-1,3.306275904E-1
8.245605995E0,-3.856930733E-1,2.688409686E-1,2.986775935E-1
8.250656620E0,-4.027330875E-1,2.486059368E-1,2.582075894E-1
8.255782661E0,-4.240330756E-1,2.305009365E-1,2.156075835E-1
8.260833339E0,-4.506580830E-1,2.198509425E-1,1.719425768E-1
8.265883964E0,-4.804780781E-1,2.177209407E-1,1.282775849E-1
8.270934641E0,-5.145580769E-1,2.134609371E-1,8.248258382E-2
8.275985266E0,-5.507680774E-1,2.102659345E-1,4.201258719E-2
8.281035891E0,-5.837830901E-1,1.996159405E-1,6.867586169E-3
8.286007766E0,-6.104080677E-1,1.889659464E-1,-2.614741400E-2
8.291058391E0,-6.274480820E-1,1.719259322E-1,-4.744741321E-2
8.296109016E0,-6.327731013E-1,1.484959424E-1,-6.235741451E-2
8.301159641E0,-6.253180504E-1,1.165459454E-1,-6.981241703E-2
8.306210318E0,-6.008231044E-1,7.181594521E-2,-6.874741614E-2
8.311260995E0,-5.571580529E-1,2.069594525E-2,-6.022741273E-2
8.316307505E0,-4.932580888E-1,-2.616405487E-2,-4.318741336E-2
8.321358130E0,-4.048630893E-1,-6.769905239E-2,-2.082241327E-2
8.326408755E0,-2.930380702E-1,-9.432405233E-2,1.538758632E-2
8.331459380E0,-1.609780788E-1,-1.060390547E-1,4.840258509E-2
8.336510057E0,-1.294307783E-2,-1.028440520E-1,8.567758650E-2
8.341560734E0,1.489369273E-1,-8.260904998E-2,1.229525879E-1
8.346617714E0,3.097519279E-1,-5.172405392E-2,1.612925828E-1
8.351668339E0,4.609819353E-1,-1.977405511E-2,1.932425797E-1
8.356718964E0,5.866519213E-1,1.217594463E-2,2.156075835E-1
8.361769589E0,6.761119366E-1,2.495594509E-2,2.294525802E-1
8.366820266E0,7.261669040E-1,6.850944832E-3,2.390375733E-1
8.371870891E0,7.336218953E-1,-3.787905723E-2,2.475575805E-1
8.376926203E0,7.059319019E-1,-8.899905533E-2,2.592726052E-1
8.381976828E0,6.409668922E-1,-1.379890591E-1,2.699225843E-1
8.387027505E0,5.472469330E-1,-1.710040569E-1,2.763125896E-1
8.392078182E0,4.418119192E-1,-1.986940652E-1,2.827025950E-1
8.397128807E0,3.310519159E-1,-2.199940532E-1,2.880275846E-1
8.402179432E0,2.266819179E-1,-2.285140604E-1,2.869625986E-1
8.407232609E0,1.404169202E-1,-2.285140604E-1,2.827025950E-1
8.412283286E0,7.758191973E-2,-2.136040628E-1,2.720525861E-1
8.417333911E0,3.285191953E-2,-1.912390590E-1,2.603375912E-1
8.422384536E0,1.048692223E-2,-1.699390560E-1,2.475575805E-1
8.427435214E0,-8.683077991E-3,-1.528990567E-1,2.369075716E-1
8.432485839E0,-3.104807809E-2,-1.603540629E-1,2.283875793E-1
8.437556464E0,-5.447807908E-2,-1.933690608E-1,2.209325731E-1
8.442607089E0,-8.749307692E-2,-2.391640544E-1,2.166725844E-1
8.447657714E0,-1.300930828E-1,-2.966740429E-1,2.124125808E-1
8.452708391E0,-1.907980740E-1,-3.520540595E-1,2.049575746E-1
8.457759016E0,-2.653480768E-1,-4.010440409E-1,1.921775788E-1
8.462809693E0,-3.409630656E-1,-4.447090328E-1,1.719425768E-1
8.467843859E0,-4.176430702E-1,-4.734640419E-1,1.474475861E-1
8.472894484E0,-4.943230748E-1,-4.830490351E-1,1.250825822E-1
8.477945109E0,-5.614180565E-1,-4.734640419E-1,1.165625826E-1
8.482995786E0,-6.146680713E-1,-4.425790310E-1,1.186925843E-1
8.488046411E0,-6.444880962E-1,-3.999790549E-1,1.346675754E-1
8.493097089E0,-6.476830840E-1,-3.499240577E-1,1.602275819E-1
8.498133026E0,-6.242530942E-1,-2.934790552E-1,1.932425797E-1
8.503183651E0,-5.688731074E-1,-2.306440622E-1,2.337125838E-1
8.508234328E0,-4.879330695E-1,-1.678090543E-1,2.837675810E-1
8.513284953E0,-3.878230751E-1,-9.538905323E-2,3.380825818E-1
8.518335630E0,-2.738680840E-1,-2.190405503E-2,3.977226019E-1
8.523386255E0,-1.492630839E-1,4.625594616E-2,4.499076009E-1
8.528474849E0,-2.785307914E-2,9.950594604E-2,4.967675805E-1
8.533525526E0,8.397191763E-2,1.282609403E-1,5.414975882E-1
8.538576151E0,1.766269207E-1,1.346509457E-1,5.734475851E-1
8.543626776E0,2.469169199E-1,1.144159436E-1,5.915526152E-1
8.548677453E0,2.969719172E-1,7.714094967E-2,6.000726223E-1
8.553728078E0,3.235969245E-1,3.986594826E-2,6.043325663E-1
8.558766984E0,3.246619105E-1,1.004594564E-2,6.011375785E-1
8.563817661E0,3.076219261E-1,-1.977405511E-2,5.936825871E-1
8.568868286E0,2.735419273E-1,-4.746405780E-2,5.840975642E-1
8.573918911E0,2.266819179E-1,-7.408905029E-2,5.659925938E-1
8.578969589E0,1.691719145E-1,-1.049740538E-1,5.436276197E-1
8.584020214E0,1.052719206E-1,-1.347940564E-1,5.116776228E-1
8.589068964E0,3.924192116E-2,-1.592890620E-1,4.797275960E-1
8.594119641E0,-2.359307930E-2,-1.912390590E-1,4.424525797E-1
8.599170266E0,-8.429808170E-2,-2.199940532E-1,3.977226019E-1
8.604220891E0,-1.407430768E-1,-2.391640544E-1,3.529925942E-1
8.609271568E0,-1.876030862E-1,-2.466190606E-1,3.061325848E-1
8.614322193E0,-2.206180841E-1,-2.380990535E-1,2.699225843E-1
8.619384849E0,-2.429830730E-1,-2.146690637E-1,2.358425856E-1
8.624435526E0,-2.568280697E-1,-1.795240641E-1,2.049575746E-1
8.629486151E0,-2.589580715E-1,-1.443790644E-1,1.825925857E-1
8.634536828E0,-2.632180750E-1,-1.198840514E-1,1.655525714E-1
8.639587453E0,-2.600230873E-1,-9.964905679E-2,1.570325792E-1
8.644638078E0,-2.461780757E-1,-8.260904998E-2,1.570325792E-1
8.649649432E0,-2.238130718E-1,-5.811405182E-2,1.570325792E-1
8.654700057E0,-2.014480829E-1,-2.616405487E-2,1.612925828E-1
8.659750682E0,-1.716280729E-1,2.590944991E-3,1.687475741E-1
8.664801359E0,-1.386130750E-1,3.454094380E-2,1.730075777E-1
8.669852036E0,-1.045330763E-1,6.862094998E-2,1.751375794E-1
8.674902661E0,-6.619308144E-2,1.090909466E-1,1.772675812E-1
8.679954953E0,-3.530807793E-2,1.378459334E-1,1.751375794E-1
8.685005578E0,-1.294307783E-2,1.623409390E-1,1.687475741E-1
8.690056203E0,6.226921920E-3,1.793809384E-1,1.538375765E-1
8.695106880E0,1.794192195E-2,1.921609342E-1,1.336025745E-1
8.700157557E0,2.007192373E-2,1.974859387E-1,1.101725847E-1
8.705208182E0,1.794192195E-2,2.017459422E-1,8.354758471E-2
8.710290734E0,9.421922266E-3,2.070709467E-1,5.479258671E-2
8.715341359E0,-4.423077684E-3,2.187859416E-1,2.497258596E-2
8.720392036E0,-1.187807787E-2,2.347609401E-1,4.775859998E-4
8.725442661E0,-1.826807857E-2,2.486059368E-1,-2.508241311E-2
8.730493286E0,-1.613807678E-2,2.645809650E-1,-4.744741321E-2
8.735543964E0,-8.683077991E-3,2.773609459E-1,-7.194241136E-2
8.740581099E0,6.226921920E-3,2.848159671E-1,-9.430741519E-2
8.745631776E0,2.859192342E-2,2.890759408E-1,-1.124124154E-1
8.750682401E0,5.415192246E-2,2.986609638E-1,-1.251924187E-1
8.755733026E0,8.397191763E-2,2.954659462E-1,-1.347774267E-1
8.760783703E0,1.095319241E-1,2.858809531E-1,-1.390374154E-1
8.765834328E0,1.361569166E-1,2.720359564E-1,-1.422324181E-1
8.770872818E0,1.521319151E-1,2.549959421E-1,-1.475574225E-1
8.775923495E0,1.595869213E-1,2.336959392E-1,-1.496874243E-1
8.780974120E0,1.574569196E-1,2.123959363E-1,-1.582074165E-1
8.786024797E0,1.457419246E-1,1.964209378E-1,-1.667274237E-1
8.791075422E0,1.233769208E-1,1.793809384E-1,-1.741824150E-1
8.796126047E0,9.781692177E-2,1.602109373E-1,-1.816374213E-1
8.801183964E0,6.586692482E-2,1.421059370E-1,-1.880274266E-1
8.806234589E0,3.178692237E-2,1.389109343E-1,-2.008074224E-1
8.811285214E0,-3.358077724E-3,1.442359388E-1,-2.114574164E-1
8.816335891E0,-3.211307898E-2,1.623409390E-1,-2.253024280E-1
8.821386516E0,-5.660807714E-2,1.889659464E-1,-2.391474247E-1
8.826437193E0,-7.364808023E-2,2.145259380E-1,-2.508624196E-1
8.831474016E0,-8.110307902E-2,2.358259410E-1,-2.593823969E-1
8.836524641E0,-8.323308080E-2,2.454109341E-1,-2.604474127E-1
8.841575266E0,-7.471308112E-2,2.507359385E-1,-2.551223934E-1
8.846625943E0,-5.767307803E-2,2.528659403E-1,-2.487324178E-1
8.851676568E0,-3.424307704E-2,2.507359385E-1,-2.455374151E-1
8.856727245E0,-3.358077724E-3,2.422159463E-1,-2.359524220E-1
8.861780734E0,3.072192147E-2,2.400859445E-1,-2.242374271E-1
8.866831359E0,6.693191826E-2,2.390209436E-1,-2.114574164E-1
8.871882036E0,1.052719206E-1,2.454109341E-1,-1.965474188E-1
8.876932661E0,1.425469220E-1,2.549959421E-1,-1.784424186E-1
8.881983286E0,1.798219234E-1,2.624509633E-1,-1.550124139E-1
8.887033964E0,2.117719203E-1,2.645809650E-1,-1.337124258E-1
8.892096724E0,2.373319268E-1,2.613859475E-1,-1.134774163E-1
8.897147401E0,2.596969306E-1,2.464759350E-1,-9.750241041E-2
8.902198026E0,2.756719291E-1,2.198509425E-1,-8.791741729E-2
8.907248703E0,2.852569222E-1,1.857709438E-1,-8.152741194E-2
8.912299328E0,2.895169258E-1,1.421059370E-1,-7.726741582E-2
8.917349953E0,2.863219082E-1,9.737594426E-2,-8.046241105E-2
8.922399953E0,2.788669169E-1,4.732094705E-2,-8.791741729E-2
8.927450682E0,2.639569342E-1,-4.864055198E-3,-1.017624140E-1
8.932501359E0,2.383969277E-1,-5.598405749E-2,-1.219974160E-1
8.937552036E0,2.096419185E-1,-9.964905679E-2,-1.422324181E-1
8.942602714E0,1.744969189E-1,-1.294690669E-1,-1.635324210E-1
8.947653443E0,1.393519193E-1,-1.411840618E-1,-1.784424186E-1
8.952689953E0,1.095319241E-1,-1.443790644E-1,-1.869624257E-1
8.957740682E0,8.929692209E-2,-1.326640546E-1,-1.954824179E-1
8.962791359E0,8.077692240E-2,-1.124290526E-1,-1.986774206E-1
8.967842036E0,7.758191973E-2,-9.858405590E-2,-2.040024251E-1
8.972892766E0,7.971192151E-2,-8.793405443E-2,-2.050674260E-1
8.977943495E0,9.568691999E-2,-8.154405653E-2,-1.976124197E-1
8.982991307E0,1.191169247E-1,-7.728405297E-2,-1.827024221E-1
8.988041984E0,1.510669142E-1,-7.834905386E-2,-1.571424156E-1
8.993092661E0,1.883419156E-1,-7.515405118E-2,-1.156074107E-1
8.998143391E0,2.352019250E-1,-7.515405118E-2,-7.300741225E-2
9.003194068E0,2.852569222E-1,-7.941405475E-2,-3.573241457E-2
9.008244797E0,3.278569281E-1,-9.751905501E-2,-4.847413860E-3
9.013306151E0,3.661969304E-1,-1.284040660E-1,1.006258652E-2
9.018356828E0,3.896269202E-1,-1.678090543E-1,1.538758632E-2
9.023407505E0,3.992119133E-1,-2.040190548E-1,1.538758632E-2
9.028458234E0,3.906919360E-1,-2.285140604E-1,1.325758640E-2
9.033508911E0,3.683269322E-1,-2.380990535E-1,8.997586556E-3
9.038559589E0,3.331819177E-1,-2.242540568E-1,4.737586249E-3
9.043598703E0,2.937769294E-1,-1.891090572E-1,-6.977413781E-3
9.048649380E0,2.479819208E-1,-1.337290555E-1,-3.147241473E-2
9.053700057E0,2.011219263E-1,-6.982905418E-2,-6.768241525E-2
9.058750786E0,1.521319151E-1,-1.669054851E-3,-1.113474146E-1
9.063801464E0,9.888192266E-2,6.968594342E-2,-1.592724174E-1
9.068852193E0,4.669691995E-2,1.389109343E-1,-2.103924155E-1
9.073901724E0,-4.423077684E-3,2.006809413E-1,-2.572523952E-1
9.078952453E0,-6.193307787E-2,2.560609579E-1,-2.987874150E-1
9.084003130E0,-1.141180769E-1,2.997259498E-1,-3.392574191E-1
9.089053807E0,-1.652380824E-1,3.338059485E-1,-3.658823967E-1
9.094104536E0,-2.142280787E-1,3.519109488E-1,-3.797273934E-1
9.099155214E0,-2.504380643E-1,3.561709523E-1,-3.733374178E-1
9.104215005E0,-2.717380822E-1,3.540409505E-1,-3.541674018E-1
9.109265734E0,-2.738680840E-1,3.433909416E-1,-3.296723962E-1
9.114316411E0,-2.589580715E-1,3.210259676E-1,-3.019824028E-1
9.119367089E0,-2.323330790E-1,2.848159671E-1,-2.785524130E-1
9.124417818E0,-1.918630749E-1,2.411509454E-1,-2.604474127E-1
9.129468495E0,-1.471330822E-1,1.964209378E-1,-2.466024160E-1
9.134513703E0,-9.920807928E-2,1.570159346E-1,-2.412774265E-1
9.139564432E0,-5.234807730E-2,1.271959394E-1,-2.380824238E-1
9.144615109E0,-8.683077991E-3,1.058959439E-1,-2.359524220E-1
9.149665786E0,2.433192357E-2,9.844094515E-2,-2.391474247E-1
9.154716516E0,4.137192294E-2,9.950594604E-2,-2.487324178E-1
9.159767193E0,4.350192100E-2,1.069609448E-1,-2.689674199E-1
9.164813911E0,3.285191953E-2,1.229359433E-1,-2.913323939E-1
9.169864589E0,3.031922039E-3,1.378459334E-1,-3.158273995E-1
9.174915266E0,-4.169807956E-2,1.570159346E-1,-3.392574191E-1
9.179965995E0,-9.707807750E-2,1.719259322E-1,-3.605574071E-1
9.185016672E0,-1.588480771E-1,1.910959333E-1,-3.775973916E-1
9.190067349E0,-2.248780727E-1,2.123959363E-1,-3.871824145E-1
9.195120057E0,-2.898430824E-1,2.305009365E-1,-3.882474005E-1
9.200170734E0,-3.558730781E-1,2.549959421E-1,-3.829224110E-1
9.205221464E0,-4.112530649E-1,2.826859653E-1,-3.690774143E-1
9.210272141E0,-4.613080919E-1,3.157009482E-1,-3.562974036E-1
9.215322818E0,-5.007130504E-1,3.497809470E-1,-3.445824087E-1
9.220373547E0,-5.252080560E-1,3.859909475E-1,-3.349974155E-1
9.225438443E0,-5.358580947E-1,4.190059602E-1,-3.286074102E-1
9.230489120E0,-5.305330753E-1,4.509559572E-1,-3.232824206E-1
9.235539849E0,-5.124281049E-1,4.679959416E-1,-3.147624135E-1
9.240590526E0,-4.836730659E-1,4.626709521E-1,-2.987874150E-1
9.245641203E0,-4.485280812E-1,4.403059483E-1,-2.860074043E-1
9.250691932E0,-4.101880789E-1,3.934459686E-1,-2.753573954E-1
9.255759224E0,-3.761080801E-1,3.316759467E-1,-2.647074163E-1
9.260809953E0,-3.420280814E-1,2.603209615E-1,-2.561874092E-1
9.265860630E0,-3.100780845E-1,1.889659464E-1,-2.466024160E-1
9.270911359E0,-2.802580893E-1,1.176109463E-1,-2.348874211E-1
9.275962036E0,-2.472430766E-1,5.477594584E-2,-2.210424244E-1
9.281012714E0,-2.078380734E-1,-1.669054851E-3,-2.061324269E-1
9.286057714E0,-1.652380824E-1,-5.065905303E-2,-1.901574284E-1
9.291108443E0,-1.226380765E-1,-9.325905144E-2,-1.805724204E-1
9.296159172E0,-7.364808023E-2,-1.315990537E-1,-1.763124168E-1
9.301209849E0,-2.678807825E-2,-1.646140665E-1,-1.741824150E-1
9.306260526E0,1.687692106E-2,-1.944340616E-1,-1.773774177E-1
9.311311203E0,5.202192068E-2,-2.093440592E-1,-1.795074195E-1
9.316345682E0,8.077692240E-2,-2.125390619E-1,-1.773774177E-1
9.321396411E0,1.010119244E-1,-2.040190548E-1,-1.677924246E-1
9.326447089E0,1.223119199E-1,-1.891090572E-1,-1.603374183E-1
9.331497818E0,1.361569166E-1,-1.699390560E-1,-1.486224234E-1
9.336548495E0,1.404169202E-1,-1.475740671E-1,-1.326474249E-1
9.341599172E0,1.393519193E-1,-1.230790541E-1,-1.145424172E-1
9.346641151E0,1.287019253E-1,-1.039090529E-1,-9.963241220E-2
9.351691828E0,1.095319241E-1,-8.367405087E-2,-9.111241251E-2
9.356742557E0,8.610191941E-2,-6.663405150E-2,-7.939741015E-2
9.361793234E0,5.308692157E-2,-4.639905691E-2,-7.194241136E-2
9.366843911E0,1.900692284E-2,-3.148905188E-2,-6.768241525E-2
9.371894641E0,-6.553078070E-3,-1.977405511E-2,-5.916241556E-2
9.376941359E0,-2.998307720E-2,-1.125405543E-2,-4.957741499E-2
9.381992036E0,-4.489307851E-2,-1.669054851E-3,-3.466741368E-2
9.387042714E0,-4.915307835E-2,-3.799055237E-3,-1.975741424E-2
9.392093443E0,-4.489307851E-2,-1.764405519E-2,-6.977413781E-3
9.397144120E0,-3.424307704E-2,-3.468405455E-2,1.542586018E-3
9.402194797E0,-2.252807841E-2,-5.172405392E-2,8.997586556E-3
9.407256620E0,-6.553078070E-3,-7.408905029E-2,1.751758531E-2
9.412307349E0,9.421922266E-3,-9.219405055E-2,2.177758701E-2
9.417358026E0,2.433192357E-2,-1.049740538E-1,2.603758685E-2
9.422408703E0,4.137192294E-2,-1.156240553E-1,2.816758677E-2
9.427459432E0,5.628192052E-2,-1.156240553E-1,3.136258572E-2
9.432510109E0,6.799691916E-2,-1.177540496E-1,3.562258556E-2
9.437557141E0,8.077692240E-2,-1.145590544E-1,3.881758451E-2
9.442607818E0,9.462191910E-2,-1.166890562E-1,4.201258719E-2
9.447658547E0,1.063369215E-1,-1.188190505E-1,4.627258703E-2
9.452709276E0,1.169869229E-1,-1.166890562E-1,5.159758776E-2
9.457759953E0,1.265719235E-1,-1.156240553E-1,5.159758776E-2
9.462810630E0,1.340269148E-1,-1.134940535E-1,4.520758614E-2
9.467883130E0,1.361569166E-1,-1.124290526E-1,3.775258735E-2
9.472933859E0,1.308319271E-1,-1.060390547E-1,2.497258596E-2
9.477984589E0,1.287019253E-1,-9.858405590E-2,1.645258628E-2
9.483035266E0,1.233769208E-1,-9.219405055E-2,1.006258652E-2
9.488085943E0,1.180519238E-1,-8.367405087E-2,7.932586595E-3
9.493136672E0,1.159219220E-1,-7.834905386E-2,1.325758640E-2
9.498165578E0,1.137919202E-1,-7.408905029E-2,1.645258628E-2
9.503216307E0,1.191169247E-1,-7.408905029E-2,1.751758531E-2
9.508266984E0,1.223119199E-1,-7.728405297E-2,1.645258628E-2
9.513317661E0,1.265719235E-1,-8.154405653E-2,1.325758640E-2
9.518368391E0,1.361569166E-1,-9.219405055E-2,1.112758648E-2
9.523419068E0,1.500019282E-1,-1.060390547E-1,3.672586055E-3
9.528461099E0,1.606519222E-1,-1.209490523E-1,-5.874139606E-4
9.533511776E0,1.702369153E-1,-1.390540600E-1,-1.652413979E-3
9.538562453E0,1.755619198E-1,-1.603540629E-1,-8.042413741E-3
9.543613182E0,1.776919216E-1,-1.848490536E-1,-1.762741432E-2
9.548663859E0,1.787569225E-1,-2.061490566E-1,-2.508241311E-2
9.553714589E0,1.755619198E-1,-2.306440622E-1,-2.827741392E-2
9.558780214E0,1.659769267E-1,-2.562040389E-1,-3.147241473E-2
9.563830891E0,1.606519222E-1,-2.785690427E-1,-3.360241279E-2
9.568881620E0,1.489369273E-1,-3.019990325E-1,-4.105741531E-2
9.573932297E0,1.382869184E-1,-3.243640363E-1,-4.957741499E-2
9.578982974E0,1.297669262E-1,-3.456640542E-1,-5.596741289E-2
9.584033703E0,1.255069226E-1,-3.605740368E-1,-5.916241556E-2
9.589099536E0,1.223119199E-1,-3.733540475E-1,-6.448741257E-2
9.594150266E0,1.212469190E-1,-3.903940320E-1,-6.661741436E-2
9.599200943E0,1.287019253E-1,-4.127590358E-1,-6.129241362E-2
9.604251620E0,1.446769238E-1,-4.276690483E-1,-5.383741483E-2
9.609302349E0,1.734319180E-1,-4.191490412E-1,-4.105741531E-2
9.614353026E0,2.139019221E-1,-3.850690424E-1,-2.188741416E-2
9.619386464E0,2.650219202E-1,-3.286240399E-1,1.542586018E-3
9.624437193E0,3.214669228E-1,-2.530090511E-1,2.923258580E-2
9.629487870E0,3.853669167E-1,-1.699390560E-1,6.011758745E-2
9.634538599E0,4.460719228E-1,-8.793405443E-2,9.526258707E-2
9.639589276E0,5.003869534E-1,-1.444905438E-2,1.325375736E-1
9.644639953E0,5.429869294E-1,4.625594616E-2,1.708775759E-1
9.649683703E0,5.728068948E-1,9.205094725E-2,2.070875764E-1
9.654734380E0,5.845219493E-1,1.197409481E-1,2.422325760E-1
9.659785109E0,5.802619457E-1,1.346509457E-1,2.731176019E-1
9.664835839E0,5.642869473E-1,1.399759352E-1,3.029375970E-1
9.669886464E0,5.429869294E-1,1.442359388E-1,3.263675869E-1
9.674937193E0,5.163618922E-1,1.559509337E-1,3.466025889E-1
9.679990266E0,4.908019304E-1,1.740559340E-1,3.572525978E-1
9.685040995E0,4.748269320E-1,1.921609342E-1,3.615126014E-1
9.690091672E0,4.620469213E-1,2.070709467E-1,3.647075891E-1
9.695142349E0,4.556569159E-1,2.187859416E-1,3.647075891E-1
9.700193078E0,4.513969123E-1,2.326309383E-1,3.679026067E-1
9.705243755E0,4.513969123E-1,2.400859445E-1,3.796176016E-1
9.710292609E0,4.535269141E-1,2.400859445E-1,3.913325965E-1
9.715343286E0,4.513969123E-1,2.315659374E-1,4.115675986E-1
9.720394016E0,4.418119192E-1,2.134609371E-1,4.307375848E-1
9.725444693E0,4.237069190E-1,1.793809384E-1,4.435175955E-1
9.730495370E0,3.938869238E-1,1.293259412E-1,4.541676044E-1
9.735546099E0,3.512869179E-1,6.862094998E-2,4.584276080E-1
9.740635422E0,2.895169258E-1,-1.231905539E-2,4.520376027E-1
9.745686151E0,2.064469159E-1,-1.081690565E-1,4.360626042E-1
9.750736828E0,9.568691999E-2,-2.114740610E-1,4.211525917E-1
9.755787557E0,-4.169807956E-2,-3.062590361E-1,4.062425792E-1
9.760838234E0,-1.939930767E-1,-3.765490353E-1,3.838776052E-1
9.765888911E0,-3.473530710E-1,-4.170190394E-1,3.615126014E-1
9.770971880E0,-4.911280870E-1,-4.383190572E-1,3.391475976E-1
9.776022609E0,-6.114730835E-1,-4.415140450E-1,3.189125955E-1
9.781073286E0,-7.030630708E-1,-4.266040325E-1,3.082625866E-1
9.786123964E0,-7.563130856E-1,-3.850690424E-1,3.093276024E-1
9.791174641E0,-7.637680769E-1,-3.190390468E-1,3.210425973E-1
9.796225370E0,-7.201030850E-1,-2.327740639E-1,3.434076011E-1
9.801198599E0,-6.359680891E-1,-1.369240582E-1,3.785525858E-1
9.806249328E0,-5.113630891E-1,-2.616405487E-2,4.243475795E-1
9.811300005E0,-3.558730781E-1,1.005709469E-1,4.775975943E-1
9.816350734E0,-1.844080836E-1,2.273059338E-1,5.308476090E-1
9.821401411E0,-6.553078070E-3,3.423259556E-1,5.809025764E-1
9.826452089E0,1.574569196E-1,4.413709641E-1,6.245675683E-1
9.831512453E0,3.022969067E-1,4.988809526E-1,6.618425846E-1
9.836563182E0,4.194469154E-1,5.116609335E-1,6.852725744E-1
9.841613859E0,5.057119131E-1,4.871659577E-1,6.937925816E-1
9.846664589E0,5.547019243E-1,4.307209551E-1,6.959226131E-1
9.851715266E0,5.674819350E-1,3.519109488E-1,6.863375902E-1
9.856765943E0,5.440519452E-1,2.592559457E-1,6.586475968E-1
9.861814589E0,4.929319322E-1,1.623409390E-1,6.192426085E-1
9.866865318E0,4.141219258E-1,6.116594374E-2,5.702525973E-1
9.871915995E0,3.193369210E-1,-3.148905188E-2,5.106126070E-1
9.876966724E0,2.170969248E-1,-1.124290526E-1,4.477775991E-1
9.882017401E0,1.137919202E-1,-1.869790554E-1,3.806825876E-1
9.887068078E0,1.155192219E-2,-2.498140484E-1,3.135876060E-1
9.892107818E0,-6.938807666E-2,-2.988040447E-1,2.464925796E-1
9.897158495E0,-1.311580837E-1,-3.296890557E-1,1.783325821E-1
9.902209224E0,-1.737580746E-1,-3.424690366E-1,1.091075838E-1
9.907259901E0,-1.971880794E-1,-3.520540595E-1,4.946758598E-2
9.912310578E0,-2.035780847E-1,-3.531190455E-1,1.542586018E-3
9.917361307E0,-1.929280758E-1,-3.435340524E-1,-4.212241247E-2
9.922410682E0,-1.748230755E-1,-3.211690485E-1,-7.300741225E-2
9.927461307E0,-1.503280848E-1,-2.966740429E-1,-9.217741340E-2
9.932511932E0,-1.268980801E-1,-2.711140513E-1,-9.963241220E-2
9.937562505E0,-1.013380811E-1,-2.412940562E-1,-9.324241430E-2
9.942613078E0,-8.429808170E-2,-2.167990655E-1,-8.259241283E-2
9.947663651E0,-7.364808023E-2,-1.944340616E-1,-6.874741614E-2
9.952746359E0,-6.725808233E-2,-1.741990596E-1,-5.490241200E-2
9.957796932E0,-6.619308144E-2,-1.539640576E-1,-3.892741352E-2
9.962847557E0,-6.938807666E-2,-1.252090633E-1,-2.508241311E-2
9.967898130E0,-7.577808201E-2,-9.432405233E-2,-1.123741362E-2
9.972948703E0,-8.110307902E-2,-6.237405539E-2,2.607585862E-3
9.977999276E0,-8.216807991E-2,-2.616405487E-2,1.325758640E-2
9.983033130E0,-8.429808170E-2,1.643594541E-2,2.071258612E-2
9.988083703E0,-7.897307724E-2,6.010094285E-2,2.816758677E-2
9.993134328E0,-6.512808055E-2,1.037659496E-1,3.562258556E-2
9.998184901E0,-4.489307851E-2,1.442359388E-1,3.775258735E-2
1.000323547E1,-1.400807779E-2,1.847059429E-1,3.881758451E-2
1.000828610E1,1.794192195E-2,2.155909389E-1,3.349258751E-2
1.001333855E1,4.776192084E-2,2.443459332E-1,2.603758685E-2
1.001838912E1,8.184192330E-2,2.752309442E-1,2.071258612E-2
1.002343969E1,1.159219220E-1,2.944009602E-1,1.858258620E-2
1.002849027E1,1.489369273E-1,3.125059605E-1,1.538758632E-2
1.003354089E1,1.776919216E-1,3.242209554E-1,1.432258636E-2
1.003859146E1,2.032519281E-1,3.252859414E-1,1.219258644E-2
1.004362818E1,2.160319239E-1,3.242209554E-1,7.932586595E-3
1.004867876E1,2.245519161E-1,3.188959658E-1,4.737586249E-3
1.005372933E1,2.245519161E-1,3.103759587E-1,5.802586209E-3
1.005877990E1,2.170969248E-1,2.922709584E-1,5.802586209E-3
